File: docs/utils/cv_example_B.DTA
EXPLAIN
TAG	CV
TITLE	LABEL	Cyclic Voltammetry	Test &Identifier
DATE	LABEL	26/5/2023	Date
TIME	LABEL	16:28:53	Time
NOTES	NOTES	1	&Notes...

PSTAT	PSTAT	G03_1010-29239	Potentiostat
VINIT	POTEN	0,00000E+000	F	Initial &E (V)
VLIMIT1	POTEN	8,50000E-001	F	Scan Limit &1 (V)
VLIMIT2	POTEN	0,00000E+000	F	Scan Limit &2 (V)
VFINAL	POTEN	0,00000E+000	F	Final &E (V)
SCANRATE	QUANT	9,99998E+000	&Scan Rate (mV/s)
STEPSIZE	QUANT	2,00000E+000	St&ep Size (mV)
CYCLES	IQUANT	3	C&ycles (#)
IMODE	SELECTOR	0	I/E Range &Mode
IRANGE	QUANT	1,00000E+003	&Max Current (mA)
AREA	QUANT	1,00000E+000	Electrode &Area (cm^2)
ELECTRODETYPE	SELECTOR	0	Electrode Type
STRIPPING	TOGGLE	F	Used for Stripping
POLARITY	TOGGLE	F	Signal Polarity
CONDIT	TWOPARAM	F	1,50000E+001	0,00000E+000	Conditionin&g	Time(s)	E(V)
DELAY	TWOPARAM	T	5,00000E+000	0,00000E+000	Init. De&lay	Time(s)	Stab.(mV/s)
EQDELAY	QUANT	0,00000E+000	Equil. &Time (s)
IRCOMP	SELECTOR	0	IRCom&p
PFCOR	QUANT	5,00000E+001	PF Corr. (ohm)
SAMPLINGMODE	SELECTOR	1	Sampling &Mode
OCVCURVE	TABLE	20
	Pt	T	Vf	Vm	Ach	Over	Temp
	#	s	V vs. Ref.	V	V	bits	deg C
	0	0,25	2,07121E-002	2,07121E-002	0,00000E+000	...........	1406,42
	1	0,5	2,07123E-002	2,07230E-002	0,00000E+000	...........	1406,42
	2	0,75	2,07135E-002	2,07311E-002	0,00000E+000	...........	1406,42
	3	1	2,07171E-002	2,07503E-002	0,00000E+000	...........	1406,42
	4	1,25	2,07239E-002	2,07555E-002	0,00000E+000	...........	1406,24
	5	1,5	2,07339E-002	2,07826E-002	0,00000E+000	...........	1406,24
	6	1,75	2,07461E-002	2,07776E-002	0,00000E+000	...........	1406,24
	7	2	2,07592E-002	2,08022E-002	0,00000E+000	...........	1406,24
	8	2,25	2,07720E-002	2,08022E-002	0,00000E+000	...........	1406,07
	9	2,5	2,07841E-002	2,08259E-002	0,00000E+000	...........	1406,07
	10	2,75	2,07957E-002	2,08277E-002	0,00000E+000	...........	1406,07
	11	3	2,08076E-002	2,08572E-002	0,00000E+000	...........	1406,07
	12	3,25	2,08202E-002	2,08499E-002	0,00000E+000	...........	1405,80
	13	3,5	2,08334E-002	2,08874E-002	0,00000E+000	...........	1405,80
	14	3,75	2,08470E-002	2,08869E-002	0,00000E+000	...........	1405,80
	15	4	2,08614E-002	2,09164E-002	0,00000E+000	...........	1405,80
	16	4,25	2,08766E-002	2,09088E-002	0,00000E+000	...........	1406,24
	17	4,5	2,08914E-002	2,09395E-002	0,00000E+000	...........	1406,24
	18	4,75	2,09050E-002	2,09285E-002	0,00000E+000	...........	1406,24
	19	5	2,09171E-002	2,09628E-002	0,00000E+000	...........	1406,24
EOC	QUANT	0,0209171	Open Circuit (V)
PSTATMODEL	IQUANT	64	Pstat Model
PSTATSECTION	LABEL	IFC1010-29239	Pstat Section
PSTATSERIALNO	LABEL	29239	Pstat Serial Number
CTRLMODE	IQUANT	1	Control Mode
ELECTROMETER	IQUANT	0	RE=0 or CS=1
IESTAB	IQUANT	2	I/E Stability
CASPEED	IQUANT	4	Control Amp Speed
CONVENTION	IQUANT	1	Current Convention
ICHRANGE	IQUANT	2	Ich Range
ICHRANGEMODE	TOGGLE	F	Ich Auto Range
ICHOFFSETENABLE	TOGGLE	F	Ich Offset Enable
ICHOFFSET	QUANT	0	Ich Offset (V)
ICHFILTER	IQUANT	3	Ich Filter
VCHRANGE	IQUANT	2	Vch Range
VCHRANGEMODE	TOGGLE	F	Vch Auto Range
VCHOFFSETENABLE	TOGGLE	F	Vch Offset Enable
VCHOFFSET	QUANT	0	Vch Offset (V)
VCHFILTER	IQUANT	3	Vch Filter
IERANGELOWERLIMIT	IQUANT	4	I/E Range Lower Limit
IERANGEMODE	TOGGLE	T	I/E AutoRange
IERANGE	IQUANT	12	I/E Range
ACHSELECT	IQUANT	0	Ach Select
ACHRANGE	IQUANT	2	Ach Range
ACHOFFSETENABLE	TOGGLE	F	Ach Offset Enable
ACHOFFSET	QUANT	0	Ach Offset (V)
ACHFILTER	IQUANT	1	Ach Filter
SENSECABLEID	IQUANT	13	Sense Cable ID
PWRCABLEID	IQUANT	13	Power Cable ID
DCCALDATE	LABEL	2/14/2023	DC Calibration Date
ACCALDATE	LABEL	7/8/2021	AC Calibration Date
FRAMEWORKVERSION	LABEL	7.8.4	Framework Version
INSTRUMENTVERSION	LABEL	4.42	Instrument Version
CURVE1	TABLE
	Pt	T	Vf	Im	Vu	Sig	Ach	IERange	Over	Temp
	#	s	V vs. Ref.	A	V	V	V	#	bits	deg C
	0	0,2	4,19418E-005	-1,97083E-003	0,00000E+000	-2,04444E-005	0,00000E+000	12	...........	1405,80
	2	0,6	4,03273E-003	-4,42161E-004	0,00000E+000	3,97736E-003	0,00000E+000	10	...........	1405,80
	4	1	8,03773E-003	-5,16087E-005	0,00000E+000	7,97516E-003	0,00000E+000	9	...........	1405,37
	6	1,4	1,20778E-002	1,59919E-004	0,00000E+000	1,20229E-002	0,00000E+000	9	...........	1405,37
	8	1,8	1,60698E-002	3,10537E-004	0,00000E+000	1,60207E-002	0,00000E+000	9	...........	1405,37
	10	2,2	2,00758E-002	4,27896E-004	0,00000E+000	2,00185E-002	0,00000E+000	9	...........	1405,37
	12	2,6	2,40652E-002	5,25946E-004	0,00000E+000	2,40164E-002	0,00000E+000	9	...........	1405,37
	14	3	2,80636E-002	6,10113E-004	0,00000E+000	2,80142E-002	0,00000E+000	9	...........	1405,37
	16	3,4	3,20722E-002	6,80299E-004	0,00000E+000	3,20120E-002	0,00000E+000	9	...........	1405,37
	18	3,8	3,60591E-002	7,38634E-004	0,00000E+000	3,60098E-002	0,00000E+000	9	...........	1405,37
	20	4,2	4,00654E-002	7,87736E-004	0,00000E+000	4,00076E-002	0,00000E+000	9	...........	1405,37
	22	4,6	4,40354E-002	8,28279E-004	0,00000E+000	4,40054E-002	0,00000E+000	9	...........	1405,37
	24	5	4,80526E-002	8,64396E-004	0,00000E+000	4,80032E-002	0,00000E+000	9	...........	1405,37
	26	5,4	5,20649E-002	8,97427E-004	0,00000E+000	5,20010E-002	0,00000E+000	9	...........	1405,37
	28	5,8	5,60609E-002	9,25965E-004	0,00000E+000	5,59988E-002	0,00000E+000	10	...........	1405,37
	30	6,2	6,00614E-002	9,45634E-004	0,00000E+000	5,99966E-002	0,00000E+000	10	...........	1405,37
	32	6,6	6,40545E-002	9,65234E-004	0,00000E+000	6,39944E-002	0,00000E+000	10	...........	1405,37
	34	7	6,80651E-002	9,82730E-004	0,00000E+000	6,79922E-002	0,00000E+000	10	...........	1405,28
	36	7,4	7,20543E-002	9,95351E-004	0,00000E+000	7,19900E-002	0,00000E+000	10	...........	1405,28
	38	7,8	7,60484E-002	1,00721E-003	0,00000E+000	7,59878E-002	0,00000E+000	10	...........	1405,28
	40	8,2	8,00648E-002	1,02021E-003	0,00000E+000	7,99856E-002	0,00000E+000	10	...........	1405,37
	42	8,6	8,40701E-002	1,02912E-003	0,00000E+000	8,39834E-002	0,00000E+000	10	...........	1405,37
	44	9	8,80746E-002	1,03692E-003	0,00000E+000	8,79813E-002	0,00000E+000	10	...........	1405,37
	46	9,4	9,20638E-002	1,04482E-003	0,00000E+000	9,19791E-002	0,00000E+000	10	...........	1405,37
	48	9,8	9,60662E-002	1,04839E-003	0,00000E+000	9,59769E-002	0,00000E+000	10	...........	1405,37
	50	10,2	1,00099E-001	1,06009E-003	0,00000E+000	1,00025E-001	0,00000E+000	10	...........	1405,37
	52	10,6	1,04114E-001	1,06264E-003	0,00000E+000	1,04022E-001	0,00000E+000	10	...........	1405,37
	54	11	1,08111E-001	1,06589E-003	0,00000E+000	1,08020E-001	0,00000E+000	10	...........	1405,37
	56	11,4	1,12119E-001	1,06811E-003	0,00000E+000	1,12018E-001	0,00000E+000	10	...........	1405,37
	58	11,8	1,16119E-001	1,07114E-003	0,00000E+000	1,16016E-001	0,00000E+000	10	...........	1405,37
	60	12,2	1,20108E-001	1,07625E-003	0,00000E+000	1,20014E-001	0,00000E+000	10	...........	1405,37
	62	12,6	1,24100E-001	1,08120E-003	0,00000E+000	1,24011E-001	0,00000E+000	10	...........	1405,37
	64	13	1,28116E-001	1,08330E-003	0,00000E+000	1,28009E-001	0,00000E+000	10	...........	1405,37
	66	13,4	1,32118E-001	1,08115E-003	0,00000E+000	1,32007E-001	0,00000E+000	10	...........	1405,37
	68	13,8	1,36109E-001	1,08665E-003	0,00000E+000	1,36005E-001	0,00000E+000	10	...........	1405,37
	70	14,2	1,40120E-001	1,09017E-003	0,00000E+000	1,40003E-001	0,00000E+000	10	...........	1405,37
	72	14,6	1,44107E-001	1,08952E-003	0,00000E+000	1,44000E-001	0,00000E+000	10	...........	1405,37
	74	15	1,48093E-001	1,09124E-003	0,00000E+000	1,47998E-001	0,00000E+000	10	...........	1405,37
	76	15,4	1,52104E-001	1,09388E-003	0,00000E+000	1,51996E-001	0,00000E+000	10	...........	1405,37
	78	15,8	1,56107E-001	1,09871E-003	0,00000E+000	1,55994E-001	0,00000E+000	10	...........	1405,37
	80	16,2	1,60105E-001	1,10227E-003	0,00000E+000	1,59992E-001	0,00000E+000	10	...........	1405,37
	82	16,6	1,64107E-001	1,10628E-003	0,00000E+000	1,63990E-001	0,00000E+000	10	...........	1405,37
	84	17	1,68117E-001	1,10554E-003	0,00000E+000	1,67987E-001	0,00000E+000	10	...........	1405,37
	86	17,4	1,72093E-001	1,10506E-003	0,00000E+000	1,71985E-001	0,00000E+000	10	...........	1405,37
	88	17,8	1,76107E-001	1,10891E-003	0,00000E+000	1,75983E-001	0,00000E+000	10	...........	1405,37
	90	18,2	1,80120E-001	1,10997E-003	0,00000E+000	1,79981E-001	0,00000E+000	10	...........	1405,37
	92	18,6	1,84121E-001	1,10967E-003	0,00000E+000	1,83979E-001	0,00000E+000	10	...........	1405,37
	94	19	1,88117E-001	1,11215E-003	0,00000E+000	1,87976E-001	0,00000E+000	10	...........	1405,37
	96	19,4	1,92164E-001	1,12172E-003	0,00000E+000	1,92024E-001	0,00000E+000	10	...........	1405,37
	98	19,8	1,96151E-001	1,11956E-003	0,00000E+000	1,96022E-001	0,00000E+000	10	...........	1405,37
	100	20,2	2,00156E-001	1,11634E-003	0,00000E+000	2,00020E-001	0,00000E+000	10	...........	1405,37
	102	20,6	2,04133E-001	1,12058E-003	0,00000E+000	2,04018E-001	0,00000E+000	10	...........	1405,37
	104	21	2,08150E-001	1,11943E-003	0,00000E+000	2,08015E-001	0,00000E+000	10	...........	1405,37
	106	21,4	2,12150E-001	1,12420E-003	0,00000E+000	2,12013E-001	0,00000E+000	10	...........	1405,37
	108	21,8	2,16143E-001	1,12590E-003	0,00000E+000	2,16011E-001	0,00000E+000	10	...........	1405,37
	110	22,2	2,20145E-001	1,12784E-003	0,00000E+000	2,20009E-001	0,00000E+000	10	...........	1405,37
	112	22,6	2,24150E-001	1,12648E-003	0,00000E+000	2,24007E-001	0,00000E+000	10	...........	1405,37
	114	23	2,28125E-001	1,13171E-003	0,00000E+000	2,28004E-001	0,00000E+000	10	...........	1405,37
	116	23,4	2,32138E-001	1,13390E-003	0,00000E+000	2,32002E-001	0,00000E+000	10	...........	1405,37
	118	23,8	2,36141E-001	1,13758E-003	0,00000E+000	2,36000E-001	0,00000E+000	10	...........	1405,37
	120	24,2	2,40145E-001	1,14002E-003	0,00000E+000	2,39998E-001	0,00000E+000	10	...........	1405,37
	122	24,6	2,44141E-001	1,14269E-003	0,00000E+000	2,43996E-001	0,00000E+000	10	...........	1405,37
	124	25	2,48116E-001	1,14415E-003	0,00000E+000	2,47993E-001	0,00000E+000	10	...........	1405,37
	126	25,4	2,52124E-001	1,14402E-003	0,00000E+000	2,51991E-001	0,00000E+000	10	...........	1405,37
	128	25,8	2,56136E-001	1,14881E-003	0,00000E+000	2,55989E-001	0,00000E+000	10	...........	1405,37
	130	26,2	2,60142E-001	1,15452E-003	0,00000E+000	2,59987E-001	0,00000E+000	10	...........	1405,28
	132	26,6	2,64120E-001	1,15806E-003	0,00000E+000	2,63985E-001	0,00000E+000	10	...........	1405,28
	134	27	2,68127E-001	1,15858E-003	0,00000E+000	2,67982E-001	0,00000E+000	10	...........	1405,37
	136	27,4	2,72126E-001	1,15959E-003	0,00000E+000	2,71980E-001	0,00000E+000	10	...........	1405,37
	138	27,8	2,76132E-001	1,16548E-003	0,00000E+000	2,75978E-001	0,00000E+000	10	...........	1405,37
	140	28,2	2,80125E-001	1,16943E-003	0,00000E+000	2,79976E-001	0,00000E+000	10	...........	1405,37
	142	28,6	2,84187E-001	1,17866E-003	0,00000E+000	2,84024E-001	0,00000E+000	10	...........	1405,37
	144	29	2,88188E-001	1,18052E-003	0,00000E+000	2,88021E-001	0,00000E+000	10	...........	1405,37
	146	29,4	2,92182E-001	1,18481E-003	0,00000E+000	2,92019E-001	0,00000E+000	10	...........	1405,37
	148	29,8	2,96181E-001	1,19039E-003	0,00000E+000	2,96017E-001	0,00000E+000	10	...........	1405,37
	150	30,2	3,00153E-001	1,19370E-003	0,00000E+000	3,00015E-001	0,00000E+000	10	...........	1405,37
	152	30,6	3,04166E-001	1,20114E-003	0,00000E+000	3,04013E-001	0,00000E+000	10	...........	1405,37
	154	31	3,08189E-001	1,20637E-003	0,00000E+000	3,08010E-001	0,00000E+000	10	...........	1405,37
	156	31,4	3,12178E-001	1,21060E-003	0,00000E+000	3,12008E-001	0,00000E+000	10	...........	1405,37
	158	31,8	3,16176E-001	1,21445E-003	0,00000E+000	3,16006E-001	0,00000E+000	10	...........	1405,37
	160	32,2	3,20184E-001	1,22323E-003	0,00000E+000	3,20004E-001	0,00000E+000	10	...........	1405,37
	162	32,6	3,24180E-001	1,22958E-003	0,00000E+000	3,24002E-001	0,00000E+000	10	...........	1405,37
	164	33	3,28166E-001	1,23487E-003	0,00000E+000	3,27999E-001	0,00000E+000	10	...........	1405,37
	166	33,4	3,32176E-001	1,23996E-003	0,00000E+000	3,31997E-001	0,00000E+000	10	...........	1405,37
	168	33,8	3,36192E-001	1,24746E-003	0,00000E+000	3,35995E-001	0,00000E+000	10	...........	1405,37
	170	34,2	3,40184E-001	1,25242E-003	0,00000E+000	3,39993E-001	0,00000E+000	10	...........	1405,37
	172	34,6	3,44186E-001	1,25817E-003	0,00000E+000	3,43991E-001	0,00000E+000	10	...........	1405,37
	174	35	3,48174E-001	1,26856E-003	0,00000E+000	3,47988E-001	0,00000E+000	10	...........	1405,37
	176	35,4	3,52178E-001	1,27018E-003	0,00000E+000	3,51986E-001	0,00000E+000	10	...........	1405,37
	178	35,8	3,56166E-001	1,28005E-003	0,00000E+000	3,55984E-001	0,00000E+000	10	...........	1405,37
	180	36,2	3,60176E-001	1,28545E-003	0,00000E+000	3,59982E-001	0,00000E+000	10	...........	1405,37
	182	36,6	3,64179E-001	1,29664E-003	0,00000E+000	3,63980E-001	0,00000E+000	10	...........	1405,37
	184	37	3,68182E-001	1,29670E-003	0,00000E+000	3,67977E-001	0,00000E+000	10	...........	1405,37
	186	37,4	3,72190E-001	1,30537E-003	0,00000E+000	3,71975E-001	0,00000E+000	10	...........	1405,37
	188	37,8	3,76228E-001	1,31621E-003	0,00000E+000	3,76023E-001	0,00000E+000	10	...........	1405,37
	190	38,2	3,80215E-001	1,31966E-003	0,00000E+000	3,80021E-001	0,00000E+000	10	...........	1405,37
	192	38,6	3,84245E-001	1,32671E-003	0,00000E+000	3,84019E-001	0,00000E+000	10	...........	1405,37
	194	39	3,88236E-001	1,32875E-003	0,00000E+000	3,88016E-001	0,00000E+000	10	...........	1405,37
	196	39,4	3,92228E-001	1,33770E-003	0,00000E+000	3,92014E-001	0,00000E+000	10	...........	1405,37
	198	39,8	3,96221E-001	1,34262E-003	0,00000E+000	3,96012E-001	0,00000E+000	10	...........	1405,37
	200	40,2	4,00229E-001	1,34681E-003	0,00000E+000	4,00010E-001	0,00000E+000	10	...........	1405,37
	202	40,6	4,04221E-001	1,35261E-003	0,00000E+000	4,04008E-001	0,00000E+000	10	...........	1405,37
	204	41	4,08230E-001	1,35214E-003	0,00000E+000	4,08006E-001	0,00000E+000	10	...........	1405,45
	206	41,4	4,12239E-001	1,35540E-003	0,00000E+000	4,12003E-001	0,00000E+000	10	...........	1405,45
	208	41,8	4,16236E-001	1,35825E-003	0,00000E+000	4,16001E-001	0,00000E+000	10	...........	1405,45
	210	42,2	4,20236E-001	1,35881E-003	0,00000E+000	4,19999E-001	0,00000E+000	10	...........	1405,37
	212	42,6	4,24251E-001	1,35812E-003	0,00000E+000	4,23997E-001	0,00000E+000	10	...........	1405,37
	214	43	4,28219E-001	1,35739E-003	0,00000E+000	4,27995E-001	0,00000E+000	10	...........	1405,37
	216	43,4	4,32209E-001	1,35986E-003	0,00000E+000	4,31992E-001	0,00000E+000	10	...........	1405,37
	218	43,8	4,36244E-001	1,36069E-003	0,00000E+000	4,35990E-001	0,00000E+000	10	...........	1405,37
	220	44,2	4,40225E-001	1,35727E-003	0,00000E+000	4,39988E-001	0,00000E+000	10	...........	1405,37
	222	44,6	4,44229E-001	1,36119E-003	0,00000E+000	4,43986E-001	0,00000E+000	10	...........	1405,37
	224	45	4,48229E-001	1,36310E-003	0,00000E+000	4,47984E-001	0,00000E+000	10	...........	1405,37
	226	45,4	4,52230E-001	1,36722E-003	0,00000E+000	4,51981E-001	0,00000E+000	10	...........	1405,37
	228	45,8	4,56216E-001	1,37022E-003	0,00000E+000	4,55979E-001	0,00000E+000	10	...........	1405,37
	230	46,2	4,60215E-001	1,37745E-003	0,00000E+000	4,59977E-001	0,00000E+000	10	...........	1405,45
	232	46,6	4,64276E-001	1,39258E-003	0,00000E+000	4,64025E-001	0,00000E+000	10	...........	1405,45
	234	47	4,68290E-001	1,39365E-003	0,00000E+000	4,68023E-001	0,00000E+000	10	...........	1405,37
	236	47,4	4,72263E-001	1,40754E-003	0,00000E+000	4,72020E-001	0,00000E+000	10	...........	1405,37
	238	47,8	4,76265E-001	1,42171E-003	0,00000E+000	4,76018E-001	0,00000E+000	10	...........	1405,37
	240	48,2	4,80276E-001	1,43528E-003	0,00000E+000	4,80016E-001	0,00000E+000	10	...........	1405,37
	242	48,6	4,84262E-001	1,45781E-003	0,00000E+000	4,84014E-001	0,00000E+000	10	...........	1405,37
	244	49	4,88283E-001	1,48631E-003	0,00000E+000	4,88012E-001	0,00000E+000	10	...........	1405,37
	246	49,4	4,92275E-001	1,51367E-003	0,00000E+000	4,92009E-001	0,00000E+000	10	...........	1405,37
	248	49,8	4,96276E-001	1,54625E-003	0,00000E+000	4,96007E-001	0,00000E+000	10	...........	1405,37
	250	50,2	5,00283E-001	1,58776E-003	0,00000E+000	5,00005E-001	0,00000E+000	10	...........	1405,37
	252	50,6	5,04273E-001	1,63162E-003	0,00000E+000	5,04003E-001	0,00000E+000	10	...........	1405,37
	254	51	5,08258E-001	1,68326E-003	0,00000E+000	5,08001E-001	0,00000E+000	10	...........	1405,45
	256	51,4	5,12282E-001	1,74003E-003	0,00000E+000	5,11998E-001	0,00000E+000	10	...........	1405,45
	258	51,8	5,16274E-001	1,80730E-003	0,00000E+000	5,15996E-001	0,00000E+000	10	...........	1405,45
	260	52,2	5,20281E-001	1,88057E-003	0,00000E+000	5,19994E-001	0,00000E+000	10	...........	1405,45
	262	52,6	5,24269E-001	1,96081E-003	0,00000E+000	5,23992E-001	0,00000E+000	10	...........	1405,45
	264	53	5,28260E-001	2,05406E-003	0,00000E+000	5,27990E-001	0,00000E+000	10	...........	1405,45
	266	53,4	5,32274E-001	2,16153E-003	0,00000E+000	5,31987E-001	0,00000E+000	10	...........	1405,45
	268	53,8	5,36261E-001	2,26986E-003	0,00000E+000	5,35985E-001	0,00000E+000	10	...........	1405,45
	270	54,2	5,40276E-001	2,39795E-003	0,00000E+000	5,39983E-001	0,00000E+000	10	...........	1405,37
	272	54,6	5,44282E-001	2,53661E-003	0,00000E+000	5,43981E-001	0,00000E+000	10	...........	1405,37
	274	55	5,48281E-001	2,68980E-003	0,00000E+000	5,47979E-001	0,00000E+000	10	...........	1405,37
	276	55,4	5,52271E-001	2,84928E-003	0,00000E+000	5,51976E-001	0,00000E+000	10	...........	1405,37
	278	55,8	5,56306E-001	3,03859E-003	0,00000E+000	5,56024E-001	0,00000E+000	10	...........	1405,37
	280	56,2	5,60335E-001	3,22996E-003	0,00000E+000	5,60022E-001	0,00000E+000	10	...........	1405,37
	282	56,6	5,64316E-001	3,44207E-003	0,00000E+000	5,64020E-001	0,00000E+000	10	...........	1405,37
	284	57	5,68322E-001	3,65999E-003	0,00000E+000	5,68018E-001	0,00000E+000	10	...........	1405,37
	286	57,4	5,72312E-001	3,90448E-003	0,00000E+000	5,72015E-001	0,00000E+000	10	...........	1405,37
	288	57,8	5,76320E-001	4,16102E-003	0,00000E+000	5,76013E-001	0,00000E+000	10	...........	1405,37
	290	58,2	5,80313E-001	4,43339E-003	0,00000E+000	5,80011E-001	0,00000E+000	10	...........	1405,45
	292	58,6	5,84313E-001	4,72459E-003	0,00000E+000	5,84009E-001	0,00000E+000	10	...........	1405,45
	294	59	5,88309E-001	5,03595E-003	0,00000E+000	5,88007E-001	0,00000E+000	10	...........	1405,45
	296	59,4	5,92326E-001	5,36879E-003	0,00000E+000	5,92004E-001	0,00000E+000	10	...........	1405,45
	298	59,8	5,96329E-001	5,72210E-003	0,00000E+000	5,96002E-001	0,00000E+000	10	...........	1405,45
	300	60,2	6,00312E-001	6,08530E-003	0,00000E+000	6,00000E-001	0,00000E+000	10	...........	1405,45
	302	60,6	6,04316E-001	6,46570E-003	0,00000E+000	6,03998E-001	0,00000E+000	10	...........	1405,45
	304	61	6,08327E-001	6,87458E-003	0,00000E+000	6,07996E-001	0,00000E+000	10	...........	1405,45
	306	61,4	6,12319E-001	7,29730E-003	0,00000E+000	6,11994E-001	0,00000E+000	10	...........	1405,45
	308	61,8	6,16316E-001	7,74332E-003	0,00000E+000	6,15991E-001	0,00000E+000	10	...........	1405,45
	310	62,2	6,20302E-001	8,20574E-003	0,00000E+000	6,19989E-001	0,00000E+000	10	...........	1405,45
	312	62,6	6,24316E-001	8,69017E-003	0,00000E+000	6,23987E-001	0,00000E+000	10	...........	1405,45
	314	63	6,28339E-001	9,19108E-003	0,00000E+000	6,27985E-001	0,00000E+000	11	...........	1405,54
	316	63,4	6,32309E-001	9,69926E-003	0,00000E+000	6,31983E-001	0,00000E+000	11	...........	1405,54
	318	63,8	6,36323E-001	1,02277E-002	0,00000E+000	6,35980E-001	0,00000E+000	11	...........	1405,54
	320	64,2	6,40335E-001	1,07831E-002	0,00000E+000	6,39978E-001	0,00000E+000	11	...........	1405,45
	322	64,6	6,44326E-001	1,13517E-002	0,00000E+000	6,43976E-001	0,00000E+000	11	...........	1405,45
	324	65	6,48370E-001	1,19608E-002	0,00000E+000	6,48024E-001	0,00000E+000	11	...........	1405,45
	326	65,4	6,52368E-001	1,25586E-002	0,00000E+000	6,52022E-001	0,00000E+000	11	...........	1405,45
	328	65,8	6,56365E-001	1,31685E-002	0,00000E+000	6,56019E-001	0,00000E+000	11	...........	1405,45
	330	66,2	6,60366E-001	1,37974E-002	0,00000E+000	6,60017E-001	0,00000E+000	11	...........	1405,37
	332	66,6	6,64357E-001	1,44416E-002	0,00000E+000	6,64015E-001	0,00000E+000	11	...........	1405,37
	334	67	6,68385E-001	1,50965E-002	0,00000E+000	6,68013E-001	0,00000E+000	11	...........	1405,45
	336	67,4	6,72380E-001	1,57573E-002	0,00000E+000	6,72011E-001	0,00000E+000	11	...........	1405,45
	338	67,8	6,76363E-001	1,64357E-002	0,00000E+000	6,76008E-001	0,00000E+000	11	...........	1405,45
	340	68,2	6,80377E-001	1,71116E-002	0,00000E+000	6,80006E-001	0,00000E+000	11	...........	1405,45
	342	68,6	6,84364E-001	1,77985E-002	0,00000E+000	6,84004E-001	0,00000E+000	11	...........	1405,45
	344	69	6,88361E-001	1,84932E-002	0,00000E+000	6,88002E-001	0,00000E+000	11	...........	1405,45
	346	69,4	6,92379E-001	1,91790E-002	0,00000E+000	6,92000E-001	0,00000E+000	11	...........	1405,45
	348	69,8	6,96371E-001	1,98660E-002	0,00000E+000	6,95997E-001	0,00000E+000	11	...........	1405,45
	350	70,2	7,00387E-001	2,05666E-002	0,00000E+000	6,99995E-001	0,00000E+000	11	...........	1405,45
	352	70,6	7,04382E-001	2,12636E-002	0,00000E+000	7,03993E-001	0,00000E+000	11	...........	1405,45
	354	71	7,08366E-001	2,19404E-002	0,00000E+000	7,07991E-001	0,00000E+000	11	...........	1405,45
	356	71,4	7,12372E-001	2,26163E-002	0,00000E+000	7,11989E-001	0,00000E+000	11	...........	1405,45
	358	71,8	7,16350E-001	2,32820E-002	0,00000E+000	7,15986E-001	0,00000E+000	11	...........	1405,45
	360	72,2	7,20385E-001	2,39430E-002	0,00000E+000	7,19984E-001	0,00000E+000	11	...........	1405,45
	362	72,6	7,24384E-001	2,45847E-002	0,00000E+000	7,23982E-001	0,00000E+000	11	...........	1405,45
	364	73	7,28368E-001	2,52094E-002	0,00000E+000	7,27980E-001	0,00000E+000	11	...........	1405,45
	366	73,4	7,32373E-001	2,58191E-002	0,00000E+000	7,31978E-001	0,00000E+000	11	...........	1405,45
	368	73,8	7,36372E-001	2,64037E-002	0,00000E+000	7,35975E-001	0,00000E+000	11	...........	1405,45
	370	74,2	7,40405E-001	2,69812E-002	0,00000E+000	7,40023E-001	0,00000E+000	11	...........	1405,45
	372	74,6	7,44429E-001	2,75269E-002	0,00000E+000	7,44021E-001	0,00000E+000	11	...........	1405,45
	374	75	7,48420E-001	2,80297E-002	0,00000E+000	7,48019E-001	0,00000E+000	11	...........	1405,45
	376	75,4	7,52414E-001	2,85164E-002	0,00000E+000	7,52017E-001	0,00000E+000	11	...........	1405,45
	378	75,8	7,56416E-001	2,89741E-002	0,00000E+000	7,56014E-001	0,00000E+000	11	...........	1405,45
	380	76,2	7,60408E-001	2,93892E-002	0,00000E+000	7,60012E-001	0,00000E+000	11	...........	1405,37
	382	76,6	7,64406E-001	2,97650E-002	0,00000E+000	7,64010E-001	0,00000E+000	11	...........	1405,37
	384	77	7,68417E-001	3,01236E-002	0,00000E+000	7,68008E-001	0,00000E+000	11	...........	1405,45
	386	77,4	7,72413E-001	3,04158E-002	0,00000E+000	7,72006E-001	0,00000E+000	11	...........	1405,45
	388	77,8	7,76428E-001	3,06698E-002	0,00000E+000	7,76003E-001	0,00000E+000	11	...........	1405,45
	390	78,2	7,80414E-001	3,08870E-002	0,00000E+000	7,80001E-001	0,00000E+000	11	...........	1405,45
	392	78,6	7,84413E-001	3,10550E-002	0,00000E+000	7,83999E-001	0,00000E+000	11	...........	1405,45
	394	79	7,88418E-001	3,11642E-002	0,00000E+000	7,87997E-001	0,00000E+000	11	...........	1405,45
	396	79,4	7,92413E-001	3,12236E-002	0,00000E+000	7,91995E-001	0,00000E+000	11	...........	1405,45
	398	79,8	7,96425E-001	3,12536E-002	0,00000E+000	7,95992E-001	0,00000E+000	11	...........	1405,45
	400	80,2	8,00433E-001	3,12126E-002	0,00000E+000	7,99990E-001	0,00000E+000	11	...........	1405,45
	402	80,6	8,04418E-001	3,11219E-002	0,00000E+000	8,03988E-001	0,00000E+000	11	...........	1405,45
	404	81	8,08417E-001	3,09863E-002	0,00000E+000	8,07986E-001	0,00000E+000	11	...........	1405,45
	406	81,4	8,12421E-001	3,07968E-002	0,00000E+000	8,11984E-001	0,00000E+000	11	...........	1405,45
	408	81,8	8,16420E-001	3,05655E-002	0,00000E+000	8,15982E-001	0,00000E+000	11	...........	1405,45
	410	82,2	8,20433E-001	3,03094E-002	0,00000E+000	8,19979E-001	0,00000E+000	11	...........	1405,45
	412	82,6	8,24426E-001	2,99953E-002	0,00000E+000	8,23977E-001	0,00000E+000	11	...........	1405,45
	414	83	8,28474E-001	2,96699E-002	0,00000E+000	8,28025E-001	0,00000E+000	11	...........	1405,45
	416	83,4	8,32484E-001	2,93156E-002	0,00000E+000	8,32023E-001	0,00000E+000	11	...........	1405,45
	418	83,8	8,36454E-001	2,89378E-002	0,00000E+000	8,36020E-001	0,00000E+000	11	...........	1405,45
	420	84,2	8,40460E-001	2,85565E-002	0,00000E+000	8,40018E-001	0,00000E+000	11	...........	1405,37
	422	84,6	8,44457E-001	2,81715E-002	0,00000E+000	8,44016E-001	0,00000E+000	11	...........	1405,37
	424	85	8,48464E-001	2,77883E-002	0,00000E+000	8,48014E-001	0,00000E+000	11	...........	1405,45
	426	85,4	8,48468E-001	2,64733E-002	0,00000E+000	8,48014E-001	0,00000E+000	11	...........	1405,45
	428	85,8	8,44456E-001	2,46303E-002	0,00000E+000	8,44016E-001	0,00000E+000	11	...........	1405,45
	430	86,2	8,40457E-001	2,30572E-002	0,00000E+000	8,40018E-001	0,00000E+000	11	...........	1405,45
	432	86,6	8,36465E-001	2,16730E-002	0,00000E+000	8,36020E-001	0,00000E+000	11	...........	1405,45
	434	87	8,32498E-001	2,04108E-002	0,00000E+000	8,32023E-001	0,00000E+000	11	...........	1405,45
	436	87,4	8,28490E-001	1,92553E-002	0,00000E+000	8,28025E-001	0,00000E+000	11	...........	1405,45
	438	87,8	8,24412E-001	1,81789E-002	0,00000E+000	8,23977E-001	0,00000E+000	11	...........	1405,45
	440	88,2	8,20442E-001	1,71771E-002	0,00000E+000	8,19979E-001	0,00000E+000	11	...........	1405,45
	442	88,6	8,16414E-001	1,62446E-002	0,00000E+000	8,15982E-001	0,00000E+000	11	...........	1405,45
	444	89	8,12425E-001	1,53725E-002	0,00000E+000	8,11984E-001	0,00000E+000	11	...........	1405,45
	446	89,4	8,08427E-001	1,45392E-002	0,00000E+000	8,07986E-001	0,00000E+000	11	...........	1405,45
	448	89,8	8,04424E-001	1,37436E-002	0,00000E+000	8,03988E-001	0,00000E+000	11	...........	1405,45
	450	90,2	8,00438E-001	1,29804E-002	0,00000E+000	7,99990E-001	0,00000E+000	11	...........	1405,45
	452	90,6	7,96428E-001	1,22370E-002	0,00000E+000	7,95992E-001	0,00000E+000	11	...........	1405,45
	454	91	7,92419E-001	1,15176E-002	0,00000E+000	7,91995E-001	0,00000E+000	11	...........	1405,45
	456	91,4	7,88422E-001	1,08242E-002	0,00000E+000	7,87997E-001	0,00000E+000	11	...........	1405,45
	458	91,8	7,84428E-001	1,01410E-002	0,00000E+000	7,83999E-001	0,00000E+000	11	...........	1405,45
	460	92,2	7,80418E-001	9,47961E-003	0,00000E+000	7,80001E-001	0,00000E+000	11	...........	1405,45
	462	92,6	7,76433E-001	8,82056E-003	0,00000E+000	7,76003E-001	0,00000E+000	11	...........	1405,45
	464	93	7,72438E-001	8,15586E-003	0,00000E+000	7,72006E-001	0,00000E+000	11	...........	1405,45
	466	93,4	7,68407E-001	7,50927E-003	0,00000E+000	7,68008E-001	0,00000E+000	10	...........	1405,45
	468	93,8	7,64387E-001	6,86689E-003	0,00000E+000	7,64010E-001	0,00000E+000	10	...........	1405,45
	470	94,2	7,60405E-001	6,22449E-003	0,00000E+000	7,60012E-001	0,00000E+000	10	...........	1405,45
	472	94,6	7,56405E-001	5,57096E-003	0,00000E+000	7,56014E-001	0,00000E+000	10	...........	1405,45
	474	95	7,52411E-001	4,91254E-003	0,00000E+000	7,52017E-001	0,00000E+000	10	...........	1405,45
	476	95,4	7,48415E-001	4,26291E-003	0,00000E+000	7,48019E-001	0,00000E+000	10	...........	1405,45
	478	95,8	7,44418E-001	3,59914E-003	0,00000E+000	7,44021E-001	0,00000E+000	10	...........	1405,45
	480	96,2	7,40400E-001	2,94226E-003	0,00000E+000	7,40023E-001	0,00000E+000	10	...........	1405,45
	482	96,6	7,36358E-001	2,25296E-003	0,00000E+000	7,35975E-001	0,00000E+000	10	...........	1405,45
	484	97	7,32369E-001	1,57446E-003	0,00000E+000	7,31978E-001	0,00000E+000	10	...........	1405,45
	486	97,4	7,28358E-001	8,98950E-004	0,00000E+000	7,27980E-001	0,00000E+000	10	...........	1405,45
	488	97,8	7,24371E-001	2,03718E-004	0,00000E+000	7,23982E-001	0,00000E+000	9	...........	1405,45
	490	98,2	7,20368E-001	-4,94211E-004	0,00000E+000	7,19984E-001	0,00000E+000	9	...........	1405,45
	492	98,6	7,16384E-001	-1,09217E-003	0,00000E+000	7,15986E-001	0,00000E+000	9	....ih..i..	1405,45
	494	99	7,12358E-001	-1,91223E-003	0,00000E+000	7,11989E-001	0,00000E+000	10	...........	1405,45
	496	99,4	7,08358E-001	-2,62704E-003	0,00000E+000	7,07991E-001	0,00000E+000	10	...........	1405,45
	498	99,8	7,04373E-001	-3,35724E-003	0,00000E+000	7,03993E-001	0,00000E+000	10	...........	1405,45
	500	100,2	7,00380E-001	-4,08752E-003	0,00000E+000	6,99995E-001	0,00000E+000	10	...........	1405,45
	502	100,6	6,96374E-001	-4,83733E-003	0,00000E+000	6,95997E-001	0,00000E+000	10	...........	1405,45
	504	101	6,92384E-001	-5,60319E-003	0,00000E+000	6,92000E-001	0,00000E+000	10	...........	1405,45
	506	101,4	6,88374E-001	-6,37027E-003	0,00000E+000	6,88002E-001	0,00000E+000	10	...........	1405,45
	508	101,8	6,84368E-001	-7,14791E-003	0,00000E+000	6,84004E-001	0,00000E+000	10	...........	1405,45
	510	102,2	6,80383E-001	-7,92384E-003	0,00000E+000	6,80006E-001	0,00000E+000	10	...........	1405,45
	512	102,6	6,76361E-001	-8,65411E-003	0,00000E+000	6,76008E-001	0,00000E+000	10	...........	1405,45
	514	103	6,72383E-001	-9,35496E-003	0,00000E+000	6,72011E-001	0,00000E+000	11	...........	1405,54
	516	103,4	6,68379E-001	-1,01116E-002	0,00000E+000	6,68013E-001	0,00000E+000	11	...........	1405,54
	518	103,8	6,64373E-001	-1,08273E-002	0,00000E+000	6,64015E-001	0,00000E+000	11	...........	1405,54
	520	104,2	6,60366E-001	-1,14725E-002	0,00000E+000	6,60017E-001	0,00000E+000	11	...........	1405,45
	522	104,6	6,56371E-001	-1,22000E-002	0,00000E+000	6,56019E-001	0,00000E+000	11	...........	1405,45
	524	105	6,52374E-001	-1,29233E-002	0,00000E+000	6,52022E-001	0,00000E+000	11	...........	1405,45
	526	105,4	6,48383E-001	-1,36302E-002	0,00000E+000	6,48024E-001	0,00000E+000	11	...........	1405,45
	528	105,8	6,44333E-001	-1,43405E-002	0,00000E+000	6,43976E-001	0,00000E+000	11	...........	1405,45
	530	106,2	6,40334E-001	-1,50120E-002	0,00000E+000	6,39978E-001	0,00000E+000	11	...........	1405,45
	532	106,6	6,36317E-001	-1,56605E-002	0,00000E+000	6,35980E-001	0,00000E+000	11	...........	1405,45
	534	107	6,32328E-001	-1,62988E-002	0,00000E+000	6,31983E-001	0,00000E+000	11	...........	1405,45
	536	107,4	6,28345E-001	-1,68894E-002	0,00000E+000	6,27985E-001	0,00000E+000	11	...........	1405,45
	538	107,8	6,24346E-001	-1,74802E-002	0,00000E+000	6,23987E-001	0,00000E+000	11	...........	1405,45
	540	108,2	6,20346E-001	-1,80327E-002	0,00000E+000	6,19989E-001	0,00000E+000	11	...........	1405,45
	542	108,6	6,16335E-001	-1,85560E-002	0,00000E+000	6,15991E-001	0,00000E+000	11	...........	1405,45
	544	109	6,12328E-001	-1,90345E-002	0,00000E+000	6,11994E-001	0,00000E+000	11	...........	1405,45
	546	109,4	6,08343E-001	-1,94788E-002	0,00000E+000	6,07996E-001	0,00000E+000	11	...........	1405,45
	548	109,8	6,04338E-001	-1,98886E-002	0,00000E+000	6,03998E-001	0,00000E+000	11	...........	1405,45
	550	110,2	6,00345E-001	-2,02580E-002	0,00000E+000	6,00000E-001	0,00000E+000	11	...........	1405,45
	552	110,6	5,96331E-001	-2,05806E-002	0,00000E+000	5,96002E-001	0,00000E+000	11	...........	1405,45
	554	111	5,92347E-001	-2,08623E-002	0,00000E+000	5,92004E-001	0,00000E+000	11	...........	1405,54
	556	111,4	5,88332E-001	-2,10902E-002	0,00000E+000	5,88007E-001	0,00000E+000	11	...........	1405,54
	558	111,8	5,84324E-001	-2,12505E-002	0,00000E+000	5,84009E-001	0,00000E+000	11	...........	1405,54
	560	112,2	5,80342E-001	-2,13629E-002	0,00000E+000	5,80011E-001	0,00000E+000	11	...........	1405,45
	562	112,6	5,76342E-001	-2,14167E-002	0,00000E+000	5,76013E-001	0,00000E+000	11	...........	1405,45
	564	113	5,72332E-001	-2,14077E-002	0,00000E+000	5,72015E-001	0,00000E+000	11	...........	1405,45
	566	113,4	5,68337E-001	-2,13249E-002	0,00000E+000	5,68018E-001	0,00000E+000	11	...........	1405,45
	568	113,8	5,64330E-001	-2,11671E-002	0,00000E+000	5,64020E-001	0,00000E+000	11	...........	1405,45
	570	114,2	5,60332E-001	-2,09469E-002	0,00000E+000	5,60022E-001	0,00000E+000	11	...........	1405,45
	572	114,6	5,56330E-001	-2,06468E-002	0,00000E+000	5,56024E-001	0,00000E+000	11	...........	1405,45
	574	115	5,52286E-001	-2,02973E-002	0,00000E+000	5,51976E-001	0,00000E+000	11	...........	1405,45
	576	115,4	5,48289E-001	-1,98624E-002	0,00000E+000	5,47979E-001	0,00000E+000	11	...........	1405,45
	578	115,8	5,44294E-001	-1,93807E-002	0,00000E+000	5,43981E-001	0,00000E+000	11	...........	1405,45
	580	116,2	5,40291E-001	-1,88562E-002	0,00000E+000	5,39983E-001	0,00000E+000	11	...........	1405,54
	582	116,6	5,36276E-001	-1,83054E-002	0,00000E+000	5,35985E-001	0,00000E+000	11	...........	1405,54
	584	117	5,32288E-001	-1,77393E-002	0,00000E+000	5,31987E-001	0,00000E+000	11	...........	1405,45
	586	117,4	5,28282E-001	-1,71987E-002	0,00000E+000	5,27990E-001	0,00000E+000	11	...........	1405,45
	588	117,8	5,24286E-001	-1,66835E-002	0,00000E+000	5,23992E-001	0,00000E+000	11	...........	1405,45
	590	118,2	5,20290E-001	-1,62310E-002	0,00000E+000	5,19994E-001	0,00000E+000	11	...........	1405,54
	592	118,6	5,16293E-001	-1,58391E-002	0,00000E+000	5,15996E-001	0,00000E+000	11	...........	1405,54
	594	119	5,12296E-001	-1,55285E-002	0,00000E+000	5,11998E-001	0,00000E+000	11	...........	1405,54
	596	119,4	5,08271E-001	-1,52916E-002	0,00000E+000	5,08001E-001	0,00000E+000	11	...........	1405,54
	598	119,8	5,04288E-001	-1,51247E-002	0,00000E+000	5,04003E-001	0,00000E+000	11	...........	1405,54
	600	120,2	5,00286E-001	-1,50246E-002	0,00000E+000	5,00005E-001	0,00000E+000	11	...........	1405,54
	602	120,6	4,96292E-001	-1,49815E-002	0,00000E+000	4,96007E-001	0,00000E+000	11	...........	1405,54
	604	121	4,92289E-001	-1,49797E-002	0,00000E+000	4,92009E-001	0,00000E+000	11	...........	1405,54
	606	121,4	4,88298E-001	-1,50220E-002	0,00000E+000	4,88012E-001	0,00000E+000	11	...........	1405,54
	608	121,8	4,84285E-001	-1,50735E-002	0,00000E+000	4,84014E-001	0,00000E+000	11	...........	1405,54
	610	122,2	4,80292E-001	-1,51418E-002	0,00000E+000	4,80016E-001	0,00000E+000	11	...........	1405,54
	612	122,6	4,76282E-001	-1,52224E-002	0,00000E+000	4,76018E-001	0,00000E+000	11	...........	1405,54
	614	123	4,72282E-001	-1,52999E-002	0,00000E+000	4,72020E-001	0,00000E+000	11	...........	1405,54
	616	123,4	4,68296E-001	-1,53754E-002	0,00000E+000	4,68023E-001	0,00000E+000	11	...........	1405,54
	618	123,8	4,64287E-001	-1,54315E-002	0,00000E+000	4,64025E-001	0,00000E+000	11	...........	1405,54
	620	124,2	4,60231E-001	-1,54961E-002	0,00000E+000	4,59977E-001	0,00000E+000	11	...........	1405,54
	622	124,6	4,56226E-001	-1,55213E-002	0,00000E+000	4,55979E-001	0,00000E+000	11	...........	1405,54
	624	125	4,52245E-001	-1,55291E-002	0,00000E+000	4,51981E-001	0,00000E+000	11	...........	1405,54
	626	125,4	4,48250E-001	-1,54955E-002	0,00000E+000	4,47984E-001	0,00000E+000	11	...........	1405,54
	628	125,8	4,44247E-001	-1,54575E-002	0,00000E+000	4,43986E-001	0,00000E+000	11	...........	1405,54
	630	126,2	4,40240E-001	-1,53804E-002	0,00000E+000	4,39988E-001	0,00000E+000	11	...........	1405,54
	632	126,6	4,36249E-001	-1,52686E-002	0,00000E+000	4,35990E-001	0,00000E+000	11	...........	1405,54
	634	127	4,32230E-001	-1,51224E-002	0,00000E+000	4,31992E-001	0,00000E+000	11	...........	1405,54
	636	127,4	4,28237E-001	-1,49552E-002	0,00000E+000	4,27995E-001	0,00000E+000	11	...........	1405,54
	638	127,8	4,24263E-001	-1,47392E-002	0,00000E+000	4,23997E-001	0,00000E+000	11	...........	1405,54
	640	128,2	4,20248E-001	-1,45048E-002	0,00000E+000	4,19999E-001	0,00000E+000	11	...........	1405,54
	642	128,6	4,16250E-001	-1,42510E-002	0,00000E+000	4,16001E-001	0,00000E+000	11	...........	1405,54
	644	129	4,12253E-001	-1,39680E-002	0,00000E+000	4,12003E-001	0,00000E+000	11	...........	1405,54
	646	129,4	4,08250E-001	-1,36629E-002	0,00000E+000	4,08006E-001	0,00000E+000	11	...........	1405,54
	648	129,8	4,04240E-001	-1,33489E-002	0,00000E+000	4,04008E-001	0,00000E+000	11	...........	1405,54
	650	130,2	4,00259E-001	-1,30210E-002	0,00000E+000	4,00010E-001	0,00000E+000	11	...........	1405,54
	652	130,6	3,96243E-001	-1,26882E-002	0,00000E+000	3,96012E-001	0,00000E+000	11	...........	1405,54
	654	131	3,92238E-001	-1,23648E-002	0,00000E+000	3,92014E-001	0,00000E+000	11	...........	1405,54
	656	131,4	3,88250E-001	-1,20506E-002	0,00000E+000	3,88016E-001	0,00000E+000	11	...........	1405,54
	658	131,8	3,84247E-001	-1,17383E-002	0,00000E+000	3,84019E-001	0,00000E+000	11	...........	1405,54
	660	132,2	3,80233E-001	-1,14417E-002	0,00000E+000	3,80021E-001	0,00000E+000	11	...........	1405,54
	662	132,6	3,76241E-001	-1,11637E-002	0,00000E+000	3,76023E-001	0,00000E+000	11	...........	1405,54
	664	133	3,72190E-001	-1,09007E-002	0,00000E+000	3,71975E-001	0,00000E+000	11	...........	1405,54
	666	133,4	3,68191E-001	-1,06492E-002	0,00000E+000	3,67977E-001	0,00000E+000	11	...........	1405,54
	668	133,8	3,64197E-001	-1,04113E-002	0,00000E+000	3,63980E-001	0,00000E+000	11	...........	1405,54
	670	134,2	3,60190E-001	-1,01952E-002	0,00000E+000	3,59982E-001	0,00000E+000	11	...........	1405,54
	672	134,6	3,56177E-001	-9,98556E-003	0,00000E+000	3,55984E-001	0,00000E+000	11	...........	1405,54
	674	135	3,52198E-001	-9,79438E-003	0,00000E+000	3,51986E-001	0,00000E+000	11	...........	1405,54
	676	135,4	3,48195E-001	-9,60780E-003	0,00000E+000	3,47988E-001	0,00000E+000	11	...........	1405,54
	678	135,8	3,44191E-001	-9,44747E-003	0,00000E+000	3,43991E-001	0,00000E+000	11	...........	1405,54
	680	136,2	3,40198E-001	-9,29693E-003	0,00000E+000	3,39993E-001	0,00000E+000	11	...........	1405,54
	682	136,6	3,36203E-001	-9,14846E-003	0,00000E+000	3,35995E-001	0,00000E+000	11	...........	1405,54
	684	137	3,32178E-001	-9,01691E-003	0,00000E+000	3,31997E-001	0,00000E+000	11	...........	1405,54
	686	137,4	3,28189E-001	-8,88757E-003	0,00000E+000	3,27999E-001	0,00000E+000	11	...........	1405,54
	688	137,8	3,24192E-001	-8,76410E-003	0,00000E+000	3,24002E-001	0,00000E+000	11	...........	1405,54
	690	138,2	3,20191E-001	-8,64406E-003	0,00000E+000	3,20004E-001	0,00000E+000	11	...........	1405,54
	692	138,6	3,16180E-001	-8,52383E-003	0,00000E+000	3,16006E-001	0,00000E+000	11	...........	1405,54
	694	139	3,12187E-001	-8,41241E-003	0,00000E+000	3,12008E-001	0,00000E+000	11	...........	1405,54
	696	139,4	3,08197E-001	-8,30334E-003	0,00000E+000	3,08010E-001	0,00000E+000	11	...........	1405,54
	698	139,8	3,04186E-001	-8,19228E-003	0,00000E+000	3,04013E-001	0,00000E+000	11	...........	1405,54
	700	140,2	3,00181E-001	-8,08736E-003	0,00000E+000	3,00015E-001	0,00000E+000	11	...........	1405,54
	702	140,6	2,96204E-001	-7,97468E-003	0,00000E+000	2,96017E-001	0,00000E+000	10	...........	1405,54
	704	141	2,92204E-001	-7,86873E-003	0,00000E+000	2,92019E-001	0,00000E+000	10	...........	1405,54
	706	141,4	2,88197E-001	-7,76884E-003	0,00000E+000	2,88021E-001	0,00000E+000	10	...........	1405,54
	708	141,8	2,84184E-001	-7,66220E-003	0,00000E+000	2,84024E-001	0,00000E+000	10	...........	1405,54
	710	142,2	2,80135E-001	-7,57157E-003	0,00000E+000	2,79976E-001	0,00000E+000	10	...........	1405,54
	712	142,6	2,76139E-001	-7,45987E-003	0,00000E+000	2,75978E-001	0,00000E+000	10	...........	1405,54
	714	143	2,72145E-001	-7,35547E-003	0,00000E+000	2,71980E-001	0,00000E+000	10	...........	1405,54
	716	143,4	2,68135E-001	-7,25349E-003	0,00000E+000	2,67982E-001	0,00000E+000	10	...........	1405,54
	718	143,8	2,64149E-001	-7,14960E-003	0,00000E+000	2,63985E-001	0,00000E+000	10	...........	1405,54
	720	144,2	2,60141E-001	-7,03996E-003	0,00000E+000	2,59987E-001	0,00000E+000	10	...........	1405,63
	722	144,6	2,56148E-001	-6,93262E-003	0,00000E+000	2,55989E-001	0,00000E+000	10	...........	1405,63
	724	145	2,52145E-001	-6,81708E-003	0,00000E+000	2,51991E-001	0,00000E+000	10	...........	1405,54
	726	145,4	2,48125E-001	-6,69777E-003	0,00000E+000	2,47993E-001	0,00000E+000	10	...........	1405,54
	728	145,8	2,44154E-001	-6,57343E-003	0,00000E+000	2,43996E-001	0,00000E+000	10	...........	1405,54
	730	146,2	2,40152E-001	-6,44650E-003	0,00000E+000	2,39998E-001	0,00000E+000	10	...........	1405,54
	732	146,6	2,36145E-001	-6,31037E-003	0,00000E+000	2,36000E-001	0,00000E+000	10	...........	1405,54
	734	147	2,32163E-001	-6,17540E-003	0,00000E+000	2,32002E-001	0,00000E+000	10	...........	1405,54
	736	147,4	2,28141E-001	-6,02319E-003	0,00000E+000	2,28004E-001	0,00000E+000	10	...........	1405,54
	738	147,8	2,24155E-001	-5,87301E-003	0,00000E+000	2,24007E-001	0,00000E+000	10	...........	1405,54
[...]
	2159	432	7,82433E-001	9,21199E-003	0,00000E+000	7,82000E-001	0,00000E+000	11	...........	1405,80
	2161	432,4	7,78424E-001	8,58372E-003	0,00000E+000	7,78002E-001	0,00000E+000	11	...........	1405,80
	2163	432,8	7,74425E-001	7,96129E-003	0,00000E+000	7,74005E-001	0,00000E+000	11	...........	1405,80
	2165	433,2	7,70411E-001	7,33842E-003	0,00000E+000	7,70007E-001	0,00000E+000	10	...........	1405,80
	2167	433,6	7,66398E-001	6,72226E-003	0,00000E+000	7,66009E-001	0,00000E+000	10	...........	1405,80
	2169	434	7,62396E-001	6,10688E-003	0,00000E+000	7,62011E-001	0,00000E+000	10	...........	1405,89
	2171	434,4	7,58415E-001	5,48649E-003	0,00000E+000	7,58013E-001	0,00000E+000	10	...........	1405,89
	2173	434,8	7,54404E-001	4,86814E-003	0,00000E+000	7,54016E-001	0,00000E+000	10	...........	1405,89
	2175	435,2	7,50414E-001	4,24941E-003	0,00000E+000	7,50018E-001	0,00000E+000	10	...........	1405,89
	2177	435,6	7,46411E-001	3,61960E-003	0,00000E+000	7,46020E-001	0,00000E+000	10	...........	1405,89
	2179	436	7,42425E-001	2,97884E-003	0,00000E+000	7,42022E-001	0,00000E+000	10	...........	1405,89
	2181	436,4	7,38413E-001	2,33503E-003	0,00000E+000	7,38024E-001	0,00000E+000	10	...........	1405,89
	2183	436,8	7,34349E-001	1,67531E-003	0,00000E+000	7,33977E-001	0,00000E+000	10	...........	1405,89
	2185	437,2	7,30366E-001	1,02002E-003	0,00000E+000	7,29979E-001	0,00000E+000	10	...........	1405,89
	2187	437,6	7,26376E-001	3,60751E-004	0,00000E+000	7,25981E-001	0,00000E+000	9	...........	1405,89
	2189	438	7,22387E-001	-1,09295E-004	0,00000E+000	7,21983E-001	0,00000E+000	8	....ih..i..	1405,89
	2191	438,4	7,18378E-001	-9,91993E-004	0,00000E+000	7,17985E-001	0,00000E+000	9	....ih.....	1405,89
	2193	438,8	7,14359E-001	-1,68849E-003	0,00000E+000	7,13987E-001	0,00000E+000	10	...........	1405,89
	2195	439,2	7,10363E-001	-2,38363E-003	0,00000E+000	7,09990E-001	0,00000E+000	10	...........	1405,54
	2197	439,6	7,06381E-001	-3,09519E-003	0,00000E+000	7,05992E-001	0,00000E+000	10	...........	1405,54
	2199	440	7,02366E-001	-3,79942E-003	0,00000E+000	7,01994E-001	0,00000E+000	10	...........	1405,80
	2201	440,4	6,98387E-001	-4,52245E-003	0,00000E+000	6,97996E-001	0,00000E+000	10	...........	1405,80
	2203	440,8	6,94370E-001	-5,26246E-003	0,00000E+000	6,93998E-001	0,00000E+000	10	...........	1405,80
	2205	441,2	6,90358E-001	-6,00313E-003	0,00000E+000	6,90001E-001	0,00000E+000	10	...........	1405,80
	2207	441,6	6,86370E-001	-6,75046E-003	0,00000E+000	6,86003E-001	0,00000E+000	10	...........	1405,80
	2209	442	6,82369E-001	-7,50724E-003	0,00000E+000	6,82005E-001	0,00000E+000	10	...........	1405,80
	2211	442,4	6,78390E-001	-8,26730E-003	0,00000E+000	6,78007E-001	0,00000E+000	10	...........	1405,80
	2213	442,8	6,74380E-001	-8,98974E-003	0,00000E+000	6,74009E-001	0,00000E+000	10	...........	1405,80
	2215	443,2	6,70383E-001	-9,73807E-003	0,00000E+000	6,70012E-001	0,00000E+000	11	...........	1405,89
	2217	443,6	6,66391E-001	-1,04077E-002	0,00000E+000	6,66014E-001	0,00000E+000	11	...........	1405,89
	2219	444	6,62355E-001	-1,11279E-002	0,00000E+000	6,62016E-001	0,00000E+000	11	...........	1405,89
	2221	444,4	6,58375E-001	-1,18486E-002	0,00000E+000	6,58018E-001	0,00000E+000	11	...........	1405,89
	2223	444,8	6,54384E-001	-1,24591E-002	0,00000E+000	6,54020E-001	0,00000E+000	11	...........	1405,89
	2225	445,2	6,50387E-001	-1,31475E-002	0,00000E+000	6,50023E-001	0,00000E+000	11	...........	1405,89
	2227	445,6	6,46385E-001	-1,38292E-002	0,00000E+000	6,46025E-001	0,00000E+000	11	...........	1405,89
	2229	446	6,42342E-001	-1,45093E-002	0,00000E+000	6,41977E-001	0,00000E+000	11	...........	1405,89
	2231	446,4	6,38314E-001	-1,51618E-002	0,00000E+000	6,37979E-001	0,00000E+000	11	...........	1405,89
	2233	446,8	6,34335E-001	-1,57872E-002	0,00000E+000	6,33981E-001	0,00000E+000	11	...........	1405,89
	2235	447,2	6,30314E-001	-1,63814E-002	0,00000E+000	6,29984E-001	0,00000E+000	11	...........	1405,80
	2237	447,6	6,26338E-001	-1,69460E-002	0,00000E+000	6,25986E-001	0,00000E+000	11	...........	1405,80
	2239	448	6,22326E-001	-1,74909E-002	0,00000E+000	6,21988E-001	0,00000E+000	11	...........	1405,80
	2241	448,4	6,18332E-001	-1,80056E-002	0,00000E+000	6,17990E-001	0,00000E+000	11	...........	1405,80
	2243	448,8	6,14340E-001	-1,84856E-002	0,00000E+000	6,13992E-001	0,00000E+000	11	...........	1405,80
	2245	449,2	6,10343E-001	-1,89234E-002	0,00000E+000	6,09995E-001	0,00000E+000	11	...........	1405,89
	2247	449,6	6,06347E-001	-1,93182E-002	0,00000E+000	6,05997E-001	0,00000E+000	11	...........	1405,89
	2249	450	6,02338E-001	-1,96739E-002	0,00000E+000	6,01999E-001	0,00000E+000	11	...........	1405,89
	2251	450,4	5,98347E-001	-1,99863E-002	0,00000E+000	5,98001E-001	0,00000E+000	11	...........	1405,89
	2253	450,8	5,94346E-001	-2,02399E-002	0,00000E+000	5,94003E-001	0,00000E+000	11	...........	1405,89
	2255	451,2	5,90338E-001	-2,04476E-002	0,00000E+000	5,90006E-001	0,00000E+000	11	...........	1405,89
	2257	451,6	5,86339E-001	-2,05981E-002	0,00000E+000	5,86008E-001	0,00000E+000	11	...........	1405,89
	2259	452	5,82338E-001	-2,06872E-002	0,00000E+000	5,82010E-001	0,00000E+000	11	...........	1405,89
	2261	452,4	5,78342E-001	-2,07135E-002	0,00000E+000	5,78012E-001	0,00000E+000	11	...........	1405,89
	2263	452,8	5,74335E-001	-2,07014E-002	0,00000E+000	5,74014E-001	0,00000E+000	11	...........	1405,89
	2265	453,2	5,70335E-001	-2,06114E-002	0,00000E+000	5,70017E-001	0,00000E+000	11	...........	1405,89
	2267	453,6	5,66343E-001	-2,04657E-002	0,00000E+000	5,66019E-001	0,00000E+000	11	...........	1405,89
	2269	454	5,62314E-001	-2,02619E-002	0,00000E+000	5,62021E-001	0,00000E+000	11	...........	1405,89
	2271	454,4	5,58338E-001	-1,99940E-002	0,00000E+000	5,58023E-001	0,00000E+000	11	...........	1405,89
	2273	454,8	5,54279E-001	-1,96936E-002	0,00000E+000	5,53975E-001	0,00000E+000	11	...........	1405,89
	2275	455,2	5,50303E-001	-1,93243E-002	0,00000E+000	5,49978E-001	0,00000E+000	11	...........	1405,89
	2277	455,6	5,46289E-001	-1,89202E-002	0,00000E+000	5,45980E-001	0,00000E+000	11	...........	1405,89
	2279	456	5,42293E-001	-1,85136E-002	0,00000E+000	5,41982E-001	0,00000E+000	11	...........	1405,89
	2281	456,4	5,38284E-001	-1,80735E-002	0,00000E+000	5,37984E-001	0,00000E+000	11	...........	1405,89
	2283	456,8	5,34278E-001	-1,76484E-002	0,00000E+000	5,33986E-001	0,00000E+000	11	...........	1405,89
	2285	457,2	5,30285E-001	-1,72563E-002	0,00000E+000	5,29989E-001	0,00000E+000	11	...........	1405,89
	2287	457,6	5,26272E-001	-1,69101E-002	0,00000E+000	5,25991E-001	0,00000E+000	11	...........	1405,89
	2289	458	5,22285E-001	-1,66267E-002	0,00000E+000	5,21993E-001	0,00000E+000	11	...........	1405,89
	2291	458,4	5,18302E-001	-1,64272E-002	0,00000E+000	5,17995E-001	0,00000E+000	11	...........	1405,89
	2293	458,8	5,14285E-001	-1,63097E-002	0,00000E+000	5,13997E-001	0,00000E+000	11	...........	1405,89
	2295	459,2	5,10286E-001	-1,62760E-002	0,00000E+000	5,10000E-001	0,00000E+000	11	...........	1405,89
	2297	459,6	5,06268E-001	-1,63264E-002	0,00000E+000	5,06002E-001	0,00000E+000	11	...........	1405,89
	2299	460	5,02289E-001	-1,64500E-002	0,00000E+000	5,02004E-001	0,00000E+000	11	...........	1405,89
	2301	460,4	4,98289E-001	-1,66393E-002	0,00000E+000	4,98006E-001	0,00000E+000	11	...........	1405,89
	2303	460,8	4,94292E-001	-1,68876E-002	0,00000E+000	4,94008E-001	0,00000E+000	11	...........	1405,89
	2305	461,2	4,90298E-001	-1,71861E-002	0,00000E+000	4,90010E-001	0,00000E+000	11	...........	1405,89
	2307	461,6	4,86287E-001	-1,75204E-002	0,00000E+000	4,86013E-001	0,00000E+000	11	...........	1405,89
	2309	462	4,82282E-001	-1,78754E-002	0,00000E+000	4,82015E-001	0,00000E+000	11	...........	1405,89
	2311	462,4	4,78295E-001	-1,82537E-002	0,00000E+000	4,78017E-001	0,00000E+000	11	...........	1405,89
	2313	462,8	4,74283E-001	-1,86452E-002	0,00000E+000	4,74019E-001	0,00000E+000	11	...........	1405,89
	2315	463,2	4,70278E-001	-1,90263E-002	0,00000E+000	4,70021E-001	0,00000E+000	11	...........	1405,89
	2317	463,6	4,66284E-001	-1,94077E-002	0,00000E+000	4,66024E-001	0,00000E+000	11	...........	1405,89
	2319	464	4,62234E-001	-1,97872E-002	0,00000E+000	4,61976E-001	0,00000E+000	11	...........	1405,89
	2321	464,4	4,58234E-001	-2,01366E-002	0,00000E+000	4,57978E-001	0,00000E+000	11	...........	1405,89
	2323	464,8	4,54230E-001	-2,04509E-002	0,00000E+000	4,53980E-001	0,00000E+000	11	...........	1405,89
	2325	465,2	4,50246E-001	-2,07413E-002	0,00000E+000	4,49982E-001	0,00000E+000	11	...........	1405,89
	2327	465,6	4,46234E-001	-2,09949E-002	0,00000E+000	4,45985E-001	0,00000E+000	11	...........	1405,89
	2329	466	4,42247E-001	-2,12091E-002	0,00000E+000	4,41987E-001	0,00000E+000	11	...........	1405,89
	2331	466,4	4,38237E-001	-2,13672E-002	0,00000E+000	4,37989E-001	0,00000E+000	11	...........	1405,89
	2333	466,8	4,34233E-001	-2,14838E-002	0,00000E+000	4,33991E-001	0,00000E+000	11	...........	1405,89
	2335	467,2	4,30238E-001	-2,15413E-002	0,00000E+000	4,29993E-001	0,00000E+000	11	...........	1405,89
	2337	467,6	4,26235E-001	-2,15370E-002	0,00000E+000	4,25996E-001	0,00000E+000	11	...........	1405,89
	2339	468	4,22258E-001	-2,14723E-002	0,00000E+000	4,21998E-001	0,00000E+000	11	...........	1405,89
	2341	468,4	4,18240E-001	-2,13538E-002	0,00000E+000	4,18000E-001	0,00000E+000	11	...........	1405,89
	2343	468,8	4,14253E-001	-2,11654E-002	0,00000E+000	4,14002E-001	0,00000E+000	11	...........	1405,89
	2345	469,2	4,10258E-001	-2,09298E-002	0,00000E+000	4,10004E-001	0,00000E+000	11	...........	1405,89
	2347	469,6	4,06244E-001	-2,06261E-002	0,00000E+000	4,06007E-001	0,00000E+000	11	...........	1405,89
	2349	470	4,02237E-001	-2,02604E-002	0,00000E+000	4,02009E-001	0,00000E+000	11	...........	1405,89
	2351	470,4	3,98246E-001	-1,98550E-002	0,00000E+000	3,98011E-001	0,00000E+000	11	...........	1405,89
	2353	470,8	3,94248E-001	-1,93924E-002	0,00000E+000	3,94013E-001	0,00000E+000	11	...........	1405,89
	2355	471,2	3,90240E-001	-1,88963E-002	0,00000E+000	3,90015E-001	0,00000E+000	11	...........	1405,89
	2357	471,6	3,86244E-001	-1,83654E-002	0,00000E+000	3,86018E-001	0,00000E+000	11	...........	1405,89
	2359	472	3,82227E-001	-1,78254E-002	0,00000E+000	3,82020E-001	0,00000E+000	11	...........	1405,89
	2361	472,4	3,78238E-001	-1,72684E-002	0,00000E+000	3,78022E-001	0,00000E+000	11	...........	1405,89
	2363	472,8	3,74251E-001	-1,67003E-002	0,00000E+000	3,74024E-001	0,00000E+000	11	...........	1405,89
	2365	473,2	3,70199E-001	-1,61607E-002	0,00000E+000	3,69976E-001	0,00000E+000	11	...........	1405,89
	2367	473,6	3,66185E-001	-1,56336E-002	0,00000E+000	3,65979E-001	0,00000E+000	11	...........	1405,89
	2369	474	3,62202E-001	-1,51150E-002	0,00000E+000	3,61981E-001	0,00000E+000	11	...........	1405,89
	2371	474,4	3,58184E-001	-1,46314E-002	0,00000E+000	3,57983E-001	0,00000E+000	11	...........	1405,89
	2373	474,8	3,54186E-001	-1,41844E-002	0,00000E+000	3,53985E-001	0,00000E+000	11	...........	1405,89
	2375	475,2	3,50177E-001	-1,37595E-002	0,00000E+000	3,49987E-001	0,00000E+000	11	...........	1405,89
	2377	475,6	3,46205E-001	-1,33733E-002	0,00000E+000	3,45990E-001	0,00000E+000	11	...........	1405,89
	2379	476	3,42188E-001	-1,30163E-002	0,00000E+000	3,41992E-001	0,00000E+000	11	...........	1405,89
	2381	476,4	3,38188E-001	-1,26949E-002	0,00000E+000	3,37994E-001	0,00000E+000	11	...........	1405,89
	2383	476,8	3,34182E-001	-1,23962E-002	0,00000E+000	3,33996E-001	0,00000E+000	11	...........	1405,89
	2385	477,2	3,30179E-001	-1,21238E-002	0,00000E+000	3,29998E-001	0,00000E+000	11	...........	1405,89
	2387	477,6	3,26181E-001	-1,18733E-002	0,00000E+000	3,26001E-001	0,00000E+000	11	...........	1405,89
	2389	478	3,22183E-001	-1,16381E-002	0,00000E+000	3,22003E-001	0,00000E+000	11	...........	1405,89
	2391	478,4	3,18193E-001	-1,14163E-002	0,00000E+000	3,18005E-001	0,00000E+000	11	...........	1405,89
	2393	478,8	3,14189E-001	-1,12110E-002	0,00000E+000	3,14007E-001	0,00000E+000	11	...........	1405,89
	2395	479,2	3,10188E-001	-1,10118E-002	0,00000E+000	3,10009E-001	0,00000E+000	11	...........	1405,89
	2397	479,6	3,06183E-001	-1,08109E-002	0,00000E+000	3,06012E-001	0,00000E+000	11	...........	1405,89
	2399	480	3,02181E-001	-1,06298E-002	0,00000E+000	3,02014E-001	0,00000E+000	11	...........	1405,89
	2401	480,4	2,98191E-001	-1,04381E-002	0,00000E+000	2,98016E-001	0,00000E+000	11	...........	1405,89
	2403	480,8	2,94193E-001	-1,02547E-002	0,00000E+000	2,94018E-001	0,00000E+000	11	...........	1405,89
	2405	481,2	2,90195E-001	-1,00817E-002	0,00000E+000	2,90020E-001	0,00000E+000	11	...........	1405,89
	2407	481,6	2,86196E-001	-9,90927E-003	0,00000E+000	2,86022E-001	0,00000E+000	11	...........	1405,89
	2409	482	2,82198E-001	-9,73317E-003	0,00000E+000	2,82025E-001	0,00000E+000	11	...........	1405,89
	2411	482,4	2,78125E-001	-9,58313E-003	0,00000E+000	2,77977E-001	0,00000E+000	11	...........	1405,89
	2413	482,8	2,74132E-001	-9,41736E-003	0,00000E+000	2,73979E-001	0,00000E+000	11	...........	1405,89
	2415	483,2	2,70145E-001	-9,25841E-003	0,00000E+000	2,69981E-001	0,00000E+000	11	...........	1405,89
	2417	483,6	2,66137E-001	-9,10382E-003	0,00000E+000	2,65984E-001	0,00000E+000	11	...........	1405,89
	2419	484	2,62153E-001	-8,95697E-003	0,00000E+000	2,61986E-001	0,00000E+000	11	...........	1405,89
	2421	484,4	2,58134E-001	-8,81152E-003	0,00000E+000	2,57988E-001	0,00000E+000	11	...........	1405,89
	2423	484,8	2,54133E-001	-8,66786E-003	0,00000E+000	2,53990E-001	0,00000E+000	11	...........	1405,89
	2425	485,2	2,50143E-001	-8,52750E-003	0,00000E+000	2,49992E-001	0,00000E+000	11	...........	1405,89
	2427	485,6	2,46143E-001	-8,39865E-003	0,00000E+000	2,45994E-001	0,00000E+000	11	...........	1405,89
	2429	486	2,42133E-001	-8,26152E-003	0,00000E+000	2,41997E-001	0,00000E+000	11	...........	1405,89
	2431	486,4	2,38154E-001	-8,13499E-003	0,00000E+000	2,37999E-001	0,00000E+000	11	...........	1405,89
	2433	486,8	2,34150E-001	-8,00478E-003	0,00000E+000	2,34001E-001	0,00000E+000	10	...........	1405,89
	2435	487,2	2,30166E-001	-7,88211E-003	0,00000E+000	2,30003E-001	0,00000E+000	10	...........	1405,89
	2437	487,6	2,26153E-001	-7,75961E-003	0,00000E+000	2,26005E-001	0,00000E+000	10	...........	1405,89
	2439	488	2,22159E-001	-7,63765E-003	0,00000E+000	2,22008E-001	0,00000E+000	10	...........	1405,98
	2441	488,4	2,18161E-001	-7,50880E-003	0,00000E+000	2,18010E-001	0,00000E+000	10	...........	1405,98
	2443	488,8	2,14159E-001	-7,38994E-003	0,00000E+000	2,14012E-001	0,00000E+000	10	...........	1405,98
	2445	489,2	2,10155E-001	-7,26863E-003	0,00000E+000	2,10014E-001	0,00000E+000	10	...........	1405,98
	2447	489,6	2,06165E-001	-7,14155E-003	0,00000E+000	2,06016E-001	0,00000E+000	10	...........	1405,98
	2449	490	2,02162E-001	-7,01272E-003	0,00000E+000	2,02019E-001	0,00000E+000	10	...........	1405,89
	2451	490,4	1,98179E-001	-6,88163E-003	0,00000E+000	1,98021E-001	0,00000E+000	10	...........	1405,89
	2453	490,8	1,94189E-001	-6,74269E-003	0,00000E+000	1,94023E-001	0,00000E+000	10	...........	1405,89
	2455	491,2	1,90109E-001	-6,60578E-003	0,00000E+000	1,89975E-001	0,00000E+000	10	...........	1405,98
	2457	491,6	1,86123E-001	-6,45499E-003	0,00000E+000	1,85977E-001	0,00000E+000	10	...........	1405,98
	2459	492	1,82114E-001	-6,29450E-003	0,00000E+000	1,81980E-001	0,00000E+000	10	...........	1405,98
	2461	492,4	1,78099E-001	-6,13033E-003	0,00000E+000	1,77982E-001	0,00000E+000	10	...........	1405,98
	2463	492,8	1,74113E-001	-5,95306E-003	0,00000E+000	1,73984E-001	0,00000E+000	10	...........	1405,98
	2465	493,2	1,70105E-001	-5,76859E-003	0,00000E+000	1,69986E-001	0,00000E+000	10	...........	1405,89
	2467	493,6	1,66119E-001	-5,57416E-003	0,00000E+000	1,65988E-001	0,00000E+000	10	...........	1405,89
	2469	494	1,62114E-001	-5,36687E-003	0,00000E+000	1,61991E-001	0,00000E+000	10	...........	1405,89
	2471	494,4	1,58108E-001	-5,14366E-003	0,00000E+000	1,57993E-001	0,00000E+000	10	...........	1405,89
	2473	494,8	1,54114E-001	-4,92857E-003	0,00000E+000	1,53995E-001	0,00000E+000	10	...........	1405,89
	2475	495,2	1,50099E-001	-4,70620E-003	0,00000E+000	1,49997E-001	0,00000E+000	10	...........	1405,89
	2477	495,6	1,46099E-001	-4,48081E-003	0,00000E+000	1,45999E-001	0,00000E+000	10	...........	1405,89
	2479	496	1,42123E-001	-4,26919E-003	0,00000E+000	1,42002E-001	0,00000E+000	10	...........	1405,89
	2481	496,4	1,38124E-001	-4,06009E-003	0,00000E+000	1,38004E-001	0,00000E+000	10	...........	1405,89
	2483	496,8	1,34111E-001	-3,86263E-003	0,00000E+000	1,34006E-001	0,00000E+000	10	...........	1405,89
	2485	497,2	1,30116E-001	-3,67997E-003	0,00000E+000	1,30008E-001	0,00000E+000	10	...........	1405,89
	2487	497,6	1,26111E-001	-3,50886E-003	0,00000E+000	1,26010E-001	0,00000E+000	10	...........	1405,89
	2489	498	1,22113E-001	-3,34416E-003	0,00000E+000	1,22013E-001	0,00000E+000	10	...........	1405,89
	2491	498,4	1,18121E-001	-3,19941E-003	0,00000E+000	1,18015E-001	0,00000E+000	10	...........	1405,89
	2493	498,8	1,14112E-001	-3,06631E-003	0,00000E+000	1,14017E-001	0,00000E+000	10	...........	1405,89
	2495	499,2	1,10115E-001	-2,94311E-003	0,00000E+000	1,10019E-001	0,00000E+000	10	...........	1405,89
	2497	499,6	1,06112E-001	-2,83371E-003	0,00000E+000	1,06021E-001	0,00000E+000	10	...........	1405,89
	2499	500	1,02103E-001	-2,73453E-003	0,00000E+000	1,02024E-001	0,00000E+000	10	...........	1405,89
	2501	500,4	9,80668E-002	-2,64751E-003	0,00000E+000	9,79758E-002	0,00000E+000	10	...........	1405,89
	2503	500,8	9,40608E-002	-2,56245E-003	0,00000E+000	9,39780E-002	0,00000E+000	10	...........	1405,89
	2505	501,2	9,00771E-002	-2,48593E-003	0,00000E+000	8,99802E-002	0,00000E+000	10	...........	1405,89
	2507	501,6	8,60634E-002	-2,42141E-003	0,00000E+000	8,59823E-002	0,00000E+000	10	...........	1405,89
	2509	502	8,20772E-002	-2,36245E-003	0,00000E+000	8,19845E-002	0,00000E+000	10	...........	1405,89
	2511	502,4	7,80692E-002	-2,31265E-003	0,00000E+000	7,79867E-002	0,00000E+000	10	...........	1405,89
	2513	502,8	7,40646E-002	-2,26475E-003	0,00000E+000	7,39889E-002	0,00000E+000	10	...........	1405,89
	2515	503,2	7,00754E-002	-2,22366E-003	0,00000E+000	6,99911E-002	0,00000E+000	10	...........	1405,89
	2517	503,6	6,60647E-002	-2,19126E-003	0,00000E+000	6,59933E-002	0,00000E+000	10	...........	1405,89
	2519	504	6,20628E-002	-2,15749E-003	0,00000E+000	6,19955E-002	0,00000E+000	10	...........	1405,89
	2521	504,4	5,80907E-002	-2,13032E-003	0,00000E+000	5,79977E-002	0,00000E+000	10	...........	1405,89
	2523	504,8	5,40723E-002	-2,10022E-003	0,00000E+000	5,39999E-002	0,00000E+000	10	...........	1405,89
	2525	505,2	5,00526E-002	-2,08792E-003	0,00000E+000	5,00021E-002	0,00000E+000	10	...........	1405,89
	2527	505,6	4,60740E-002	-2,06841E-003	0,00000E+000	4,60043E-002	0,00000E+000	10	...........	1405,89
	2529	506	4,20722E-002	-2,05368E-003	0,00000E+000	4,20065E-002	0,00000E+000	10	...........	1405,89
	2531	506,4	3,80705E-002	-2,03922E-003	0,00000E+000	3,80087E-002	0,00000E+000	10	...........	1405,89
	2533	506,8	3,40812E-002	-2,03270E-003	0,00000E+000	3,40109E-002	0,00000E+000	10	...........	1405,89
	2535	507,2	3,00755E-002	-2,02291E-003	0,00000E+000	3,00131E-002	0,00000E+000	10	...........	1405,89
	2537	507,6	2,60850E-002	-2,01274E-003	0,00000E+000	2,60153E-002	0,00000E+000	10	...........	1405,89
	2539	508	2,20659E-002	-2,00837E-003	0,00000E+000	2,20174E-002	0,00000E+000	10	...........	1405,89
	2541	508,4	1,80637E-002	-2,00000E-003	0,00000E+000	1,80196E-002	0,00000E+000	10	...........	1405,89
	2543	508,8	1,41005E-002	-1,99387E-003	0,00000E+000	1,40218E-002	0,00000E+000	10	...........	1405,89
	2545	509,2	1,00898E-002	-1,98353E-003	0,00000E+000	1,00240E-002	0,00000E+000	10	...........	1405,89
	2547	509,6	6,03576E-003	-1,97980E-003	0,00000E+000	5,97626E-003	0,00000E+000	10	...........	1405,89
	2549	510	2,03696E-003	-1,97265E-003	0,00000E+000	1,97846E-003	0,00000E+000	10	...........	1405,89
	2550	510,2	4,45427E-005	-1,96782E-003	0,00000E+000	-2,04444E-005	0,00000E+000	10	...........	1405,89
CURVE4	TABLE
	Pt	T	Vf	Im	Vu	Sig	Ach	IERange	Over	Temp
	#	s	V vs. Ref.	A	V	V	V	#	bits	deg C
	2551	510,4	4,80441E-005	-1,72499E-003	0,00000E+000	-2,04444E-005	0,00000E+000	10	...........	1405,89