File: docs/utils/cv_example_A.DTA
EXPLAIN
TAG	CV
TITLE	LABEL	Cyclic Voltammetry	Test &Identifier
DATE	LABEL	30/5/2023	Date
TIME	LABEL	9:49:02	Time
NOTES	NOTES	1	&Notes...

PSTAT	PSTAT	G03_1010-29239	Potentiostat
VINIT	POTEN	0,00000E+000	F	Initial &E (V)
VLIMIT1	POTEN	1,00000E+000	F	Scan Limit &1 (V)
VLIMIT2	POTEN	0,00000E+000	F	Scan Limit &2 (V)
VFINAL	POTEN	0,00000E+000	F	Final &E (V)
SCANRATE	QUANT	9,99998E+000	&Scan Rate (mV/s)
STEPSIZE	QUANT	2,00000E+000	St&ep Size (mV)
CYCLES	IQUANT	3	C&ycles (#)
IMODE	SELECTOR	0	I/E Range &Mode
IRANGE	QUANT	1,00000E+003	&Max Current (mA)
AREA	QUANT	1,00000E+000	Electrode &Area (cm^2)
ELECTRODETYPE	SELECTOR	0	Electrode Type
STRIPPING	TOGGLE	F	Used for Stripping
POLARITY	TOGGLE	F	Signal Polarity
CONDIT	TWOPARAM	F	1,50000E+001	0,00000E+000	Conditionin&g	Time(s)	E(V)
DELAY	TWOPARAM	T	5,00000E+000	0,00000E+000	Init. De&lay	Time(s)	Stab.(mV/s)
EQDELAY	QUANT	0,00000E+000	Equil. &Time (s)
IRCOMP	SELECTOR	0	IRCom&p
PFCOR	QUANT	5,00000E+001	PF Corr. (ohm)
SAMPLINGMODE	SELECTOR	1	Sampling &Mode
OCVCURVE	TABLE	20
	Pt	T	Vf	Vm	Ach	Over	Temp
	#	s	V vs. Ref.	V	V	bits	deg C
	0	0,25	2,20255E-001	2,20255E-001	0,00000E+000	...........	1406,77
	1	0,5	2,20260E-001	2,20489E-001	0,00000E+000	...........	1406,77
	2	0,75	2,20287E-001	2,20676E-001	0,00000E+000	...........	1406,77
	3	1	2,20361E-001	2,20915E-001	0,00000E+000	...........	1406,77
	4	1,25	2,20494E-001	2,21092E-001	0,00000E+000	...........	1406,15
	5	1,5	2,20673E-001	2,21319E-001	0,00000E+000	...........	1406,15
	6	1,75	2,20875E-001	2,21510E-001	0,00000E+000	...........	1406,15
	7	2	2,21084E-001	2,21726E-001	0,00000E+000	...........	1406,15
	8	2,25	2,21292E-001	2,21918E-001	0,00000E+000	...........	1406,07
	9	2,5	2,21498E-001	2,22091E-001	0,00000E+000	...........	1406,07
	10	2,75	2,21699E-001	2,22289E-001	0,00000E+000	...........	1406,07
	11	3	2,21894E-001	2,22497E-001	0,00000E+000	...........	1406,07
	12	3,25	2,22087E-001	2,22692E-001	0,00000E+000	...........	1406,07
	13	3,5	2,22281E-001	2,22907E-001	0,00000E+000	...........	1406,07
	14	3,75	2,22480E-001	2,23104E-001	0,00000E+000	...........	1406,07
	15	4	2,22682E-001	2,23337E-001	0,00000E+000	...........	1406,07
	16	4,25	2,22888E-001	2,23526E-001	0,00000E+000	...........	1406,15
	17	4,5	2,23097E-001	2,23741E-001	0,00000E+000	...........	1406,15
	18	4,75	2,23307E-001	2,23944E-001	0,00000E+000	...........	1406,15
	19	5	2,23516E-001	2,24184E-001	0,00000E+000	...........	1406,15
EOC	QUANT	0,2235157	Open Circuit (V)
PSTATMODEL	IQUANT	64	Pstat Model
PSTATSECTION	LABEL	IFC1010-29239	Pstat Section
PSTATSERIALNO	LABEL	29239	Pstat Serial Number
CTRLMODE	IQUANT	1	Control Mode
ELECTROMETER	IQUANT	0	RE=0 or CS=1
IESTAB	IQUANT	2	I/E Stability
CASPEED	IQUANT	4	Control Amp Speed
CONVENTION	IQUANT	1	Current Convention
ICHRANGE	IQUANT	2	Ich Range
ICHRANGEMODE	TOGGLE	F	Ich Auto Range
ICHOFFSETENABLE	TOGGLE	F	Ich Offset Enable
ICHOFFSET	QUANT	0	Ich Offset (V)
ICHFILTER	IQUANT	3	Ich Filter
VCHRANGE	IQUANT	2	Vch Range
VCHRANGEMODE	TOGGLE	F	Vch Auto Range
VCHOFFSETENABLE	TOGGLE	F	Vch Offset Enable
VCHOFFSET	QUANT	0	Vch Offset (V)
VCHFILTER	IQUANT	3	Vch Filter
IERANGELOWERLIMIT	IQUANT	4	I/E Range Lower Limit
IERANGEMODE	TOGGLE	T	I/E AutoRange
IERANGE	IQUANT	12	I/E Range
ACHSELECT	IQUANT	0	Ach Select
ACHRANGE	IQUANT	2	Ach Range
ACHOFFSETENABLE	TOGGLE	F	Ach Offset Enable
ACHOFFSET	QUANT	0	Ach Offset (V)
ACHFILTER	IQUANT	1	Ach Filter
SENSECABLEID	IQUANT	13	Sense Cable ID
PWRCABLEID	IQUANT	13	Power Cable ID
DCCALDATE	LABEL	2/14/2023	DC Calibration Date
ACCALDATE	LABEL	7/8/2021	AC Calibration Date
FRAMEWORKVERSION	LABEL	7.8.4	Framework Version
INSTRUMENTVERSION	LABEL	4.42	Instrument Version
CURVE1	TABLE
	Pt	T	Vf	Im	Vu	Sig	Ach	IERange	Over	Temp
	#	s	V vs. Ref.	A	V	V	V	#	bits	deg C
	0	0,2	6,36496E-005	-2,47246E-002	0,00000E+000	1,71065E-005	0,00000E+000	12	...........	1406,15
	2	0,6	4,05744E-003	-9,70827E-003	0,00000E+000	4,01491E-003	0,00000E+000	11	...........	1406,15
	4	1	8,08760E-003	-6,14222E-003	0,00000E+000	8,01271E-003	0,00000E+000	10	...........	1406,15
	6	1,4	1,20766E-002	-4,34747E-003	0,00000E+000	1,20105E-002	0,00000E+000	10	...........	1405,02
	8	1,8	1,60689E-002	-3,20074E-003	0,00000E+000	1,60083E-002	0,00000E+000	10	...........	1405,02
	10	2,2	2,00778E-002	-2,39086E-003	0,00000E+000	2,00061E-002	0,00000E+000	10	...........	1405,37
	12	2,6	2,40721E-002	-1,83376E-003	0,00000E+000	2,40039E-002	0,00000E+000	10	...........	1405,37
	14	3	2,80653E-002	-1,43400E-003	0,00000E+000	2,80017E-002	0,00000E+000	10	...........	1405,37
	16	3,4	3,20894E-002	-1,11852E-003	0,00000E+000	3,19995E-002	0,00000E+000	10	...........	1405,28
	18	3,8	3,60674E-002	-8,90445E-004	0,00000E+000	3,59973E-002	0,00000E+000	10	...........	1405,28
	20	4,2	4,00712E-002	-7,05270E-004	0,00000E+000	3,99951E-002	0,00000E+000	9	...........	1405,28
	22	4,6	4,40631E-002	-5,58798E-004	0,00000E+000	4,39929E-002	0,00000E+000	9	...........	1405,28
	24	5	4,80634E-002	-4,37601E-004	0,00000E+000	4,79907E-002	0,00000E+000	9	...........	1405,28
	26	5,4	5,20677E-002	-3,26126E-004	0,00000E+000	5,19886E-002	0,00000E+000	9	...........	1405,28
	28	5,8	5,60835E-002	-2,25821E-004	0,00000E+000	5,59864E-002	0,00000E+000	9	...........	1405,28
	30	6,2	6,00714E-002	-1,54977E-004	0,00000E+000	5,99842E-002	0,00000E+000	9	...........	1405,19
	32	6,6	6,40640E-002	-8,70627E-005	0,00000E+000	6,39820E-002	0,00000E+000	9	...........	1405,19
	34	7	6,80708E-002	-1,22108E-005	0,00000E+000	6,79798E-002	0,00000E+000	8	...........	1405,19
	36	7,4	7,20698E-002	4,42454E-005	0,00000E+000	7,19776E-002	0,00000E+000	8	.....h.....	1405,28
	38	7,8	7,60810E-002	1,08167E-004	0,00000E+000	7,59754E-002	0,00000E+000	9	...........	1405,28
	40	8,2	8,01155E-002	1,64487E-004	0,00000E+000	8,00232E-002	0,00000E+000	9	...........	1405,10
	42	8,6	8,41155E-002	2,19115E-004	0,00000E+000	8,40210E-002	0,00000E+000	9	...........	1405,10
	44	9	8,81224E-002	2,69668E-004	0,00000E+000	8,80188E-002	0,00000E+000	9	...........	1405,10
	46	9,4	9,21185E-002	3,19300E-004	0,00000E+000	9,20166E-002	0,00000E+000	9	...........	1405,28
	48	9,8	9,61025E-002	3,59638E-004	0,00000E+000	9,60144E-002	0,00000E+000	9	...........	1405,28
	50	10,2	1,00083E-001	4,03098E-004	0,00000E+000	1,00012E-001	0,00000E+000	9	...........	1405,28
	52	10,6	1,04111E-001	4,39648E-004	0,00000E+000	1,04010E-001	0,00000E+000	9	...........	1405,28
	54	11	1,08108E-001	4,72321E-004	0,00000E+000	1,08008E-001	0,00000E+000	9	...........	1405,28
	56	11,4	1,12117E-001	5,08067E-004	0,00000E+000	1,12006E-001	0,00000E+000	9	...........	1405,28
	58	11,8	1,16113E-001	5,35355E-004	0,00000E+000	1,16003E-001	0,00000E+000	9	...........	1405,28
	60	12,2	1,20104E-001	5,64531E-004	0,00000E+000	1,20001E-001	0,00000E+000	9	...........	1405,37
	62	12,6	1,24092E-001	5,92955E-004	0,00000E+000	1,23999E-001	0,00000E+000	9	...........	1405,37
	64	13	1,28112E-001	6,16118E-004	0,00000E+000	1,27997E-001	0,00000E+000	9	...........	1405,37
	66	13,4	1,32103E-001	6,36263E-004	0,00000E+000	1,31995E-001	0,00000E+000	9	...........	1405,37
	68	13,8	1,36102E-001	6,54953E-004	0,00000E+000	1,35992E-001	0,00000E+000	9	...........	1405,37
	70	14,2	1,40092E-001	6,73555E-004	0,00000E+000	1,39990E-001	0,00000E+000	9	...........	1405,28
	72	14,6	1,44097E-001	6,88833E-004	0,00000E+000	1,43988E-001	0,00000E+000	9	...........	1405,28
	74	15	1,48090E-001	7,07946E-004	0,00000E+000	1,47986E-001	0,00000E+000	9	...........	1405,28
	76	15,4	1,52085E-001	7,26154E-004	0,00000E+000	1,51984E-001	0,00000E+000	9	...........	1404,84
	78	15,8	1,56098E-001	7,36364E-004	0,00000E+000	1,55981E-001	0,00000E+000	9	...........	1404,84
	80	16,2	1,60100E-001	7,46721E-004	0,00000E+000	1,59979E-001	0,00000E+000	9	...........	1404,84
	82	16,6	1,64097E-001	7,61034E-004	0,00000E+000	1,63977E-001	0,00000E+000	9	...........	1404,84
	84	17	1,68145E-001	7,73864E-004	0,00000E+000	1,68025E-001	0,00000E+000	9	...........	1404,84
	86	17,4	1,72127E-001	7,79484E-004	0,00000E+000	1,72023E-001	0,00000E+000	9	...........	1404,84
	88	17,8	1,76144E-001	7,81967E-004	0,00000E+000	1,76020E-001	0,00000E+000	9	...........	1404,84
	90	18,2	1,80156E-001	7,94488E-004	0,00000E+000	1,80018E-001	0,00000E+000	9	...........	1404,75
	92	18,6	1,84146E-001	7,98878E-004	0,00000E+000	1,84016E-001	0,00000E+000	9	...........	1404,75
	94	19	1,88160E-001	8,10445E-004	0,00000E+000	1,88014E-001	0,00000E+000	9	...........	1404,75
	96	19,4	1,92145E-001	8,02542E-004	0,00000E+000	1,92012E-001	0,00000E+000	9	...........	1404,84
	98	19,8	1,96133E-001	8,12997E-004	0,00000E+000	1,96009E-001	0,00000E+000	9	...........	1404,84
	100	20,2	2,00131E-001	8,24146E-004	0,00000E+000	2,00007E-001	0,00000E+000	9	...........	1404,84
	102	20,6	2,04131E-001	8,23484E-004	0,00000E+000	2,04005E-001	0,00000E+000	9	...........	1404,84
	104	21	2,08135E-001	8,33229E-004	0,00000E+000	2,08003E-001	0,00000E+000	9	...........	1404,84
	106	21,4	2,12137E-001	8,39760E-004	0,00000E+000	2,12001E-001	0,00000E+000	9	...........	1404,84
	108	21,8	2,16130E-001	8,52693E-004	0,00000E+000	2,15999E-001	0,00000E+000	9	...........	1404,84
	110	22,2	2,20137E-001	8,55119E-004	0,00000E+000	2,19996E-001	0,00000E+000	9	...........	1404,93
	112	22,6	2,24130E-001	8,66482E-004	0,00000E+000	2,23994E-001	0,00000E+000	9	...........	1404,93
	114	23	2,28105E-001	8,73278E-004	0,00000E+000	2,27992E-001	0,00000E+000	9	...........	1404,93
	116	23,4	2,32126E-001	8,84222E-004	0,00000E+000	2,31990E-001	0,00000E+000	9	...........	1404,93
	118	23,8	2,36133E-001	8,83689E-004	0,00000E+000	2,35988E-001	0,00000E+000	9	...........	1404,93
	120	24,2	2,40127E-001	8,96081E-004	0,00000E+000	2,39985E-001	0,00000E+000	10	...........	1404,84
	122	24,6	2,44142E-001	9,15344E-004	0,00000E+000	2,43983E-001	0,00000E+000	10	...........	1404,84
	124	25	2,48126E-001	9,21118E-004	0,00000E+000	2,47981E-001	0,00000E+000	10	...........	1404,84
	126	25,4	2,52143E-001	9,23492E-004	0,00000E+000	2,51979E-001	0,00000E+000	10	...........	1405,10
	128	25,8	2,56140E-001	9,36607E-004	0,00000E+000	2,55977E-001	0,00000E+000	10	...........	1405,10
	130	26,2	2,60201E-001	9,48624E-004	0,00000E+000	2,60024E-001	0,00000E+000	10	...........	1405,28
	132	26,6	2,64182E-001	9,49393E-004	0,00000E+000	2,64022E-001	0,00000E+000	10	...........	1405,28
	134	27	2,68180E-001	9,59927E-004	0,00000E+000	2,68020E-001	0,00000E+000	10	...........	1405,28
	136	27,4	2,72183E-001	9,64223E-004	0,00000E+000	2,72018E-001	0,00000E+000	10	...........	1405,28
	138	27,8	2,76175E-001	9,73468E-004	0,00000E+000	2,76016E-001	0,00000E+000	10	...........	1405,28
	140	28,2	2,80184E-001	9,84570E-004	0,00000E+000	2,80013E-001	0,00000E+000	10	...........	1405,28
	142	28,6	2,84184E-001	9,98001E-004	0,00000E+000	2,84011E-001	0,00000E+000	10	...........	1405,28
	144	29	2,88200E-001	1,00353E-003	0,00000E+000	2,88009E-001	0,00000E+000	10	...........	1405,28
	146	29,4	2,92181E-001	9,96293E-004	0,00000E+000	2,92007E-001	0,00000E+000	10	...........	1405,28
	148	29,8	2,96184E-001	1,00924E-003	0,00000E+000	2,96005E-001	0,00000E+000	10	...........	1405,28
	150	30,2	3,00173E-001	1,00564E-003	0,00000E+000	3,00002E-001	0,00000E+000	10	...........	1405,28
	152	30,6	3,04187E-001	1,01420E-003	0,00000E+000	3,04000E-001	0,00000E+000	10	...........	1405,28
	154	31	3,08197E-001	1,01655E-003	0,00000E+000	3,07998E-001	0,00000E+000	10	...........	1405,28
	156	31,4	3,12176E-001	1,02134E-003	0,00000E+000	3,11996E-001	0,00000E+000	10	...........	1405,28
	158	31,8	3,16165E-001	1,02415E-003	0,00000E+000	3,15994E-001	0,00000E+000	10	...........	1405,28
	160	32,2	3,20186E-001	1,01804E-003	0,00000E+000	3,19991E-001	0,00000E+000	10	...........	1405,19
	162	32,6	3,24176E-001	1,02135E-003	0,00000E+000	3,23989E-001	0,00000E+000	10	...........	1405,19
	164	33	3,28172E-001	1,02964E-003	0,00000E+000	3,27987E-001	0,00000E+000	10	...........	1405,19
	166	33,4	3,32177E-001	1,02057E-003	0,00000E+000	3,31985E-001	0,00000E+000	10	...........	1405,28
	168	33,8	3,36186E-001	1,02399E-003	0,00000E+000	3,35983E-001	0,00000E+000	10	...........	1405,28
	170	34,2	3,40177E-001	1,02614E-003	0,00000E+000	3,39980E-001	0,00000E+000	10	...........	1405,28
	172	34,6	3,44148E-001	1,03919E-003	0,00000E+000	3,43978E-001	0,00000E+000	10	...........	1405,28
	174	35	3,48168E-001	1,04448E-003	0,00000E+000	3,47976E-001	0,00000E+000	10	...........	1405,28
	176	35,4	3,52221E-001	1,05769E-003	0,00000E+000	3,52024E-001	0,00000E+000	10	...........	1405,28
	178	35,8	3,56213E-001	1,04537E-003	0,00000E+000	3,56022E-001	0,00000E+000	10	...........	1405,28
	180	36,2	3,60225E-001	1,06306E-003	0,00000E+000	3,60019E-001	0,00000E+000	10	...........	1405,28
	182	36,6	3,64232E-001	1,05176E-003	0,00000E+000	3,64017E-001	0,00000E+000	10	...........	1405,28
	184	37	3,68228E-001	1,06307E-003	0,00000E+000	3,68015E-001	0,00000E+000	10	...........	1405,28
	186	37,4	3,72222E-001	1,06236E-003	0,00000E+000	3,72013E-001	0,00000E+000	10	...........	1405,28
	188	37,8	3,76226E-001	1,06128E-003	0,00000E+000	3,76011E-001	0,00000E+000	10	...........	1405,28
	190	38,2	3,80214E-001	1,06914E-003	0,00000E+000	3,80008E-001	0,00000E+000	10	...........	1405,28
	192	38,6	3,84214E-001	1,07007E-003	0,00000E+000	3,84006E-001	0,00000E+000	10	...........	1405,28
	194	39	3,88231E-001	1,08305E-003	0,00000E+000	3,88004E-001	0,00000E+000	10	...........	1405,28
	196	39,4	3,92224E-001	1,08555E-003	0,00000E+000	3,92002E-001	0,00000E+000	10	...........	1405,19
	198	39,8	3,96232E-001	1,08997E-003	0,00000E+000	3,96000E-001	0,00000E+000	10	...........	1405,19
	200	40,2	4,00224E-001	1,09222E-003	0,00000E+000	3,99997E-001	0,00000E+000	10	...........	1405,28
	202	40,6	4,04217E-001	1,10836E-003	0,00000E+000	4,03995E-001	0,00000E+000	10	...........	1405,28
	204	41	4,08222E-001	1,10573E-003	0,00000E+000	4,07993E-001	0,00000E+000	10	...........	1405,28
	206	41,4	4,12239E-001	1,12029E-003	0,00000E+000	4,11991E-001	0,00000E+000	10	...........	1405,28
	208	41,8	4,16234E-001	1,13375E-003	0,00000E+000	4,15989E-001	0,00000E+000	10	...........	1405,28
	210	42,2	4,20230E-001	1,13010E-003	0,00000E+000	4,19986E-001	0,00000E+000	10	...........	1405,28
	212	42,6	4,24244E-001	1,13764E-003	0,00000E+000	4,23984E-001	0,00000E+000	10	...........	1405,28
	214	43	4,28226E-001	1,14533E-003	0,00000E+000	4,27982E-001	0,00000E+000	10	...........	1405,28
	216	43,4	4,32198E-001	1,15705E-003	0,00000E+000	4,31980E-001	0,00000E+000	10	...........	1405,28
	218	43,8	4,36237E-001	1,16191E-003	0,00000E+000	4,35978E-001	0,00000E+000	10	...........	1405,28
	220	44,2	4,40226E-001	1,17342E-003	0,00000E+000	4,39976E-001	0,00000E+000	10	...........	1405,28
	222	44,6	4,44285E-001	1,18173E-003	0,00000E+000	4,44023E-001	0,00000E+000	10	...........	1405,28
	224	45	4,48278E-001	1,18224E-003	0,00000E+000	4,48021E-001	0,00000E+000	10	...........	1405,28
	226	45,4	4,52276E-001	1,19735E-003	0,00000E+000	4,52019E-001	0,00000E+000	10	...........	1405,19
	228	45,8	4,56265E-001	1,21388E-003	0,00000E+000	4,56017E-001	0,00000E+000	10	...........	1405,19
	230	46,2	4,60255E-001	1,23073E-003	0,00000E+000	4,60015E-001	0,00000E+000	10	...........	1405,10
	232	46,6	4,64277E-001	1,25401E-003	0,00000E+000	4,64012E-001	0,00000E+000	10	...........	1405,10
	234	47	4,68293E-001	1,27054E-003	0,00000E+000	4,68010E-001	0,00000E+000	10	...........	1405,10
	236	47,4	4,72262E-001	1,30100E-003	0,00000E+000	4,72008E-001	0,00000E+000	10	...........	1405,28
	238	47,8	4,76280E-001	1,33468E-003	0,00000E+000	4,76006E-001	0,00000E+000	10	...........	1405,28
	240	48,2	4,80269E-001	1,37730E-003	0,00000E+000	4,80004E-001	0,00000E+000	10	...........	1405,28
	242	48,6	4,84283E-001	1,42930E-003	0,00000E+000	4,84001E-001	0,00000E+000	10	...........	1405,28
	244	49	4,88283E-001	1,48437E-003	0,00000E+000	4,87999E-001	0,00000E+000	10	...........	1405,28
	246	49,4	4,92281E-001	1,53803E-003	0,00000E+000	4,91997E-001	0,00000E+000	10	...........	1405,28
	248	49,8	4,96277E-001	1,61236E-003	0,00000E+000	4,95995E-001	0,00000E+000	10	...........	1405,28
	250	50,2	5,00271E-001	1,67477E-003	0,00000E+000	4,99993E-001	0,00000E+000	10	...........	1405,28
	252	50,6	5,04273E-001	1,76262E-003	0,00000E+000	5,03990E-001	0,00000E+000	10	...........	1405,28
	254	51	5,08259E-001	1,86135E-003	0,00000E+000	5,07988E-001	0,00000E+000	10	...........	1405,28
	256	51,4	5,12281E-001	1,95551E-003	0,00000E+000	5,11986E-001	0,00000E+000	10	...........	1405,28
	258	51,8	5,16275E-001	2,06100E-003	0,00000E+000	5,15984E-001	0,00000E+000	10	...........	1405,28
	260	52,2	5,20283E-001	2,18244E-003	0,00000E+000	5,19982E-001	0,00000E+000	10	...........	1405,19
	262	52,6	5,24257E-001	2,31580E-003	0,00000E+000	5,23979E-001	0,00000E+000	10	...........	1405,19
	264	53	5,28261E-001	2,46285E-003	0,00000E+000	5,27977E-001	0,00000E+000	10	...........	1405,19
	266	53,4	5,32313E-001	2,63256E-003	0,00000E+000	5,32025E-001	0,00000E+000	10	...........	1405,10
	268	53,8	5,36309E-001	2,79703E-003	0,00000E+000	5,36023E-001	0,00000E+000	10	...........	1405,10
	270	54,2	5,40326E-001	2,97720E-003	0,00000E+000	5,40021E-001	0,00000E+000	10	...........	1405,37
	272	54,6	5,44320E-001	3,17982E-003	0,00000E+000	5,44018E-001	0,00000E+000	10	...........	1405,37
	274	55	5,48311E-001	3,39550E-003	0,00000E+000	5,48016E-001	0,00000E+000	10	...........	1405,37
	276	55,4	5,52328E-001	3,62319E-003	0,00000E+000	5,52014E-001	0,00000E+000	10	...........	1405,28
	278	55,8	5,56307E-001	3,88316E-003	0,00000E+000	5,56012E-001	0,00000E+000	10	...........	1405,28
	280	56,2	5,60312E-001	4,14348E-003	0,00000E+000	5,60010E-001	0,00000E+000	10	...........	1405,28
	282	56,6	5,64321E-001	4,42279E-003	0,00000E+000	5,64007E-001	0,00000E+000	10	...........	1405,28
	284	57	5,68319E-001	4,71344E-003	0,00000E+000	5,68005E-001	0,00000E+000	10	...........	1405,28
	286	57,4	5,72305E-001	5,03576E-003	0,00000E+000	5,72003E-001	0,00000E+000	10	...........	1405,28
	288	57,8	5,76310E-001	5,36867E-003	0,00000E+000	5,76001E-001	0,00000E+000	10	...........	1405,28
	290	58,2	5,80315E-001	5,74167E-003	0,00000E+000	5,79999E-001	0,00000E+000	10	...........	1405,28
	292	58,6	5,84300E-001	6,10104E-003	0,00000E+000	5,83996E-001	0,00000E+000	10	...........	1405,28
	294	59	5,88313E-001	6,49263E-003	0,00000E+000	5,87994E-001	0,00000E+000	10	...........	1405,28
	296	59,4	5,92317E-001	6,88756E-003	0,00000E+000	5,91992E-001	0,00000E+000	10	...........	1405,19
	298	59,8	5,96332E-001	7,32034E-003	0,00000E+000	5,95990E-001	0,00000E+000	10	...........	1405,19
	300	60,2	6,00306E-001	7,75907E-003	0,00000E+000	5,99988E-001	0,00000E+000	10	...........	1405,10
	302	60,6	6,04310E-001	8,23382E-003	0,00000E+000	6,03985E-001	0,00000E+000	10	...........	1405,10
	304	61	6,08302E-001	8,69741E-003	0,00000E+000	6,07983E-001	0,00000E+000	10	...........	1405,10
	306	61,4	6,12330E-001	9,20042E-003	0,00000E+000	6,11981E-001	0,00000E+000	11	...........	1405,37
	308	61,8	6,16317E-001	9,70856E-003	0,00000E+000	6,15979E-001	0,00000E+000	11	...........	1405,37
	310	62,2	6,20315E-001	1,02377E-002	0,00000E+000	6,19977E-001	0,00000E+000	11	...........	1405,37
	312	62,6	6,24372E-001	1,07836E-002	0,00000E+000	6,24024E-001	0,00000E+000	11	...........	1405,37
	314	63	6,28368E-001	1,13310E-002	0,00000E+000	6,28022E-001	0,00000E+000	11	...........	1405,37
	316	63,4	6,32352E-001	1,18864E-002	0,00000E+000	6,32020E-001	0,00000E+000	11	...........	1405,28
	318	63,8	6,36368E-001	1,24691E-002	0,00000E+000	6,36018E-001	0,00000E+000	11	...........	1405,28
	320	64,2	6,40378E-001	1,30511E-002	0,00000E+000	6,40016E-001	0,00000E+000	11	...........	1405,28
	322	64,6	6,44370E-001	1,36639E-002	0,00000E+000	6,44014E-001	0,00000E+000	11	...........	1405,28
	324	65	6,48378E-001	1,42877E-002	0,00000E+000	6,48011E-001	0,00000E+000	11	...........	1405,28
	326	65,4	6,52356E-001	1,49152E-002	0,00000E+000	6,52009E-001	0,00000E+000	11	...........	1405,28
	328	65,8	6,56363E-001	1,55300E-002	0,00000E+000	6,56007E-001	0,00000E+000	11	...........	1405,28
	330	66,2	6,60353E-001	1,61755E-002	0,00000E+000	6,60005E-001	0,00000E+000	11	...........	1405,19
	332	66,6	6,64369E-001	1,68221E-002	0,00000E+000	6,64003E-001	0,00000E+000	11	...........	1405,19
	334	67	6,68381E-001	1,74572E-002	0,00000E+000	6,68000E-001	0,00000E+000	11	...........	1405,19
	336	67,4	6,72364E-001	1,81133E-002	0,00000E+000	6,71998E-001	0,00000E+000	11	...........	1405,02
	338	67,8	6,76362E-001	1,87742E-002	0,00000E+000	6,75996E-001	0,00000E+000	11	...........	1405,02
	340	68,2	6,80375E-001	1,94121E-002	0,00000E+000	6,79994E-001	0,00000E+000	11	...........	1405,28
	342	68,6	6,84355E-001	2,00652E-002	0,00000E+000	6,83992E-001	0,00000E+000	11	...........	1405,28
	344	69	6,88362E-001	2,07045E-002	0,00000E+000	6,87989E-001	0,00000E+000	11	...........	1405,28
	346	69,4	6,92380E-001	2,13421E-002	0,00000E+000	6,91987E-001	0,00000E+000	11	...........	1405,37
	348	69,8	6,96375E-001	2,19791E-002	0,00000E+000	6,95985E-001	0,00000E+000	11	...........	1405,37
	350	70,2	7,00378E-001	2,25900E-002	0,00000E+000	6,99983E-001	0,00000E+000	11	...........	1405,28
	352	70,6	7,04385E-001	2,32300E-002	0,00000E+000	7,03981E-001	0,00000E+000	11	...........	1405,28
	354	71	7,08371E-001	2,38427E-002	0,00000E+000	7,07978E-001	0,00000E+000	11	...........	1405,28
	356	71,4	7,12370E-001	2,44210E-002	0,00000E+000	7,11976E-001	0,00000E+000	11	...........	1405,28
	358	71,8	7,16409E-001	2,49829E-002	0,00000E+000	7,16024E-001	0,00000E+000	11	...........	1405,28
	360	72,2	7,20424E-001	2,55098E-002	0,00000E+000	7,20022E-001	0,00000E+000	11	...........	1405,28
	362	72,6	7,24420E-001	2,60274E-002	0,00000E+000	7,24020E-001	0,00000E+000	11	...........	1405,28
	364	73	7,28412E-001	2,65121E-002	0,00000E+000	7,28017E-001	0,00000E+000	11	...........	1405,28
	366	73,4	7,32418E-001	2,69469E-002	0,00000E+000	7,32015E-001	0,00000E+000	11	...........	1405,19
	368	73,8	7,36405E-001	2,73930E-002	0,00000E+000	7,36013E-001	0,00000E+000	11	...........	1405,19
	370	74,2	7,40406E-001	2,77996E-002	0,00000E+000	7,40011E-001	0,00000E+000	11	...........	1405,02
	372	74,6	7,44424E-001	2,81522E-002	0,00000E+000	7,44009E-001	0,00000E+000	11	...........	1405,02
	374	75	7,48414E-001	2,85113E-002	0,00000E+000	7,48006E-001	0,00000E+000	11	...........	1405,02
	376	75,4	7,52401E-001	2,87831E-002	0,00000E+000	7,52004E-001	0,00000E+000	11	...........	1405,37
	378	75,8	7,56408E-001	2,90567E-002	0,00000E+000	7,56002E-001	0,00000E+000	11	...........	1405,37
	380	76,2	7,60416E-001	2,92613E-002	0,00000E+000	7,60000E-001	0,00000E+000	11	...........	1405,28
	382	76,6	7,64400E-001	2,94429E-002	0,00000E+000	7,63998E-001	0,00000E+000	11	...........	1405,28
	384	77	7,68417E-001	2,95773E-002	0,00000E+000	7,67995E-001	0,00000E+000	11	...........	1405,28
	386	77,4	7,72415E-001	2,96798E-002	0,00000E+000	7,71993E-001	0,00000E+000	11	...........	1405,28
	388	77,8	7,76412E-001	2,97130E-002	0,00000E+000	7,75991E-001	0,00000E+000	11	...........	1405,28
	390	78,2	7,80410E-001	2,96983E-002	0,00000E+000	7,79989E-001	0,00000E+000	11	...........	1405,28
	392	78,6	7,84407E-001	2,96780E-002	0,00000E+000	7,83987E-001	0,00000E+000	11	...........	1405,28
	394	79	7,88414E-001	2,95874E-002	0,00000E+000	7,87984E-001	0,00000E+000	11	...........	1405,28
	396	79,4	7,92395E-001	2,94493E-002	0,00000E+000	7,91982E-001	0,00000E+000	11	...........	1405,28
	398	79,8	7,96401E-001	2,92637E-002	0,00000E+000	7,95980E-001	0,00000E+000	11	...........	1405,28
	400	80,2	8,00418E-001	2,90015E-002	0,00000E+000	7,99978E-001	0,00000E+000	11	...........	1405,19
	402	80,6	8,04410E-001	2,87328E-002	0,00000E+000	8,03976E-001	0,00000E+000	11	...........	1405,19
	404	81	8,08462E-001	2,84224E-002	0,00000E+000	8,08023E-001	0,00000E+000	11	...........	1405,19
	406	81,4	8,12464E-001	2,79944E-002	0,00000E+000	8,12021E-001	0,00000E+000	11	...........	1405,02
	408	81,8	8,16453E-001	2,75856E-002	0,00000E+000	8,16019E-001	0,00000E+000	11	...........	1405,02
	410	82,2	8,20480E-001	2,71071E-002	0,00000E+000	8,20017E-001	0,00000E+000	11	...........	1404,93
	412	82,6	8,24474E-001	2,66135E-002	0,00000E+000	8,24015E-001	0,00000E+000	11	...........	1404,93
	414	83	8,28463E-001	2,61153E-002	0,00000E+000	8,28012E-001	0,00000E+000	11	...........	1404,93
	416	83,4	8,32475E-001	2,56320E-002	0,00000E+000	8,32010E-001	0,00000E+000	11	...........	1405,37
	418	83,8	8,36458E-001	2,52053E-002	0,00000E+000	8,36008E-001	0,00000E+000	11	...........	1405,37
	420	84,2	8,40470E-001	2,48136E-002	0,00000E+000	8,40006E-001	0,00000E+000	11	...........	1405,28
	422	84,6	8,44483E-001	2,44865E-002	0,00000E+000	8,44004E-001	0,00000E+000	11	...........	1405,28
	424	85	8,48468E-001	2,41914E-002	0,00000E+000	8,48001E-001	0,00000E+000	11	...........	1405,28
	426	85,4	8,52472E-001	2,39599E-002	0,00000E+000	8,51999E-001	0,00000E+000	11	...........	1405,28
	428	85,8	8,56459E-001	2,37615E-002	0,00000E+000	8,55997E-001	0,00000E+000	11	...........	1405,28
	430	86,2	8,60459E-001	2,36105E-002	0,00000E+000	8,59995E-001	0,00000E+000	11	...........	1405,37
	432	86,6	8,64458E-001	2,35042E-002	0,00000E+000	8,63993E-001	0,00000E+000	11	...........	1405,37
	434	87	8,68455E-001	2,34404E-002	0,00000E+000	8,67990E-001	0,00000E+000	11	...........	1405,37
	436	87,4	8,72457E-001	2,33981E-002	0,00000E+000	8,71988E-001	0,00000E+000	11	...........	1405,10
	438	87,8	8,76468E-001	2,33989E-002	0,00000E+000	8,75986E-001	0,00000E+000	11	...........	1405,10
	440	88,2	8,80463E-001	2,34312E-002	0,00000E+000	8,79984E-001	0,00000E+000	11	...........	1405,02
	442	88,6	8,84462E-001	2,34905E-002	0,00000E+000	8,83982E-001	0,00000E+000	11	...........	1405,02
	444	89	8,88472E-001	2,35947E-002	0,00000E+000	8,87980E-001	0,00000E+000	11	...........	1405,02
	446	89,4	8,92458E-001	2,37350E-002	0,00000E+000	8,91977E-001	0,00000E+000	11	...........	1404,84
	448	89,8	8,96459E-001	2,39139E-002	0,00000E+000	8,95975E-001	0,00000E+000	11	...........	1404,84
	450	90,2	9,00525E-001	2,41294E-002	0,00000E+000	9,00023E-001	0,00000E+000	11	...........	1405,37
	452	90,6	9,04518E-001	2,43889E-002	0,00000E+000	9,04021E-001	0,00000E+000	11	...........	1405,37
	454	91	9,08513E-001	2,46645E-002	0,00000E+000	9,08019E-001	0,00000E+000	11	...........	1405,37
	456	91,4	9,12510E-001	2,49740E-002	0,00000E+000	9,12016E-001	0,00000E+000	11	...........	1405,37
	458	91,8	9,16490E-001	2,53485E-002	0,00000E+000	9,16014E-001	0,00000E+000	11	...........	1405,37
	460	92,2	9,20504E-001	2,57348E-002	0,00000E+000	9,20012E-001	0,00000E+000	11	...........	1405,28
	462	92,6	9,24507E-001	2,61572E-002	0,00000E+000	9,24010E-001	0,00000E+000	11	...........	1405,28
	464	93	9,28516E-001	2,66374E-002	0,00000E+000	9,28008E-001	0,00000E+000	11	...........	1405,28
	466	93,4	9,32503E-001	2,71378E-002	0,00000E+000	9,32005E-001	0,00000E+000	11	...........	1405,37
	468	93,8	9,36503E-001	2,76582E-002	0,00000E+000	9,36003E-001	0,00000E+000	11	...........	1405,37
	470	94,2	9,40516E-001	2,82375E-002	0,00000E+000	9,40001E-001	0,00000E+000	11	...........	1405,10
	472	94,6	9,44494E-001	2,88268E-002	0,00000E+000	9,43999E-001	0,00000E+000	11	...........	1405,10
	474	95	9,48510E-001	2,94513E-002	0,00000E+000	9,47997E-001	0,00000E+000	11	...........	1405,10
	476	95,4	9,52508E-001	3,01057E-002	0,00000E+000	9,51994E-001	0,00000E+000	11	...........	1404,93
	478	95,8	9,56505E-001	3,07795E-002	0,00000E+000	9,55992E-001	0,00000E+000	11	...........	1404,93
	480	96,2	9,60514E-001	3,14567E-002	0,00000E+000	9,59990E-001	0,00000E+000	11	...........	1404,84
	482	96,6	9,64499E-001	3,21695E-002	0,00000E+000	9,63988E-001	0,00000E+000	11	...........	1404,84
	484	97	9,68501E-001	3,28984E-002	0,00000E+000	9,67986E-001	0,00000E+000	11	...........	1404,84
	486	97,4	9,72487E-001	3,36296E-002	0,00000E+000	9,71983E-001	0,00000E+000	11	...........	1405,37
	488	97,8	9,76514E-001	3,43750E-002	0,00000E+000	9,75981E-001	0,00000E+000	11	...........	1405,37
	490	98,2	9,80496E-001	3,51362E-002	0,00000E+000	9,79979E-001	0,00000E+000	11	...........	1405,37
	492	98,6	9,84515E-001	3,58931E-002	0,00000E+000	9,83977E-001	0,00000E+000	11	...........	1405,37
	494	99	9,88534E-001	3,66739E-002	0,00000E+000	9,88025E-001	0,00000E+000	11	...........	1405,37
	496	99,4	9,92546E-001	3,74352E-002	0,00000E+000	9,92022E-001	0,00000E+000	11	...........	1405,37
	498	99,8	9,96543E-001	3,82110E-002	0,00000E+000	9,96020E-001	0,00000E+000	11	...........	1405,37
	500	100,2	1,00055E+000	3,89859E-002	0,00000E+000	1,00002E+000	0,00000E+000	11	...........	1405,28
	502	100,6	9,96555E-001	3,78083E-002	0,00000E+000	9,96020E-001	0,00000E+000	11	...........	1405,28
	504	101	9,92554E-001	3,68286E-002	0,00000E+000	9,92022E-001	0,00000E+000	11	...........	1405,28
	506	101,4	9,88547E-001	3,58274E-002	0,00000E+000	9,88025E-001	0,00000E+000	11	...........	1405,37
	508	101,8	9,84495E-001	3,48323E-002	0,00000E+000	9,83977E-001	0,00000E+000	11	...........	1405,37
	510	102,2	9,80500E-001	3,38739E-002	0,00000E+000	9,79979E-001	0,00000E+000	11	...........	1405,02
	512	102,6	9,76507E-001	3,28909E-002	0,00000E+000	9,75981E-001	0,00000E+000	11	...........	1405,02
	514	103	9,72481E-001	3,19333E-002	0,00000E+000	9,71983E-001	0,00000E+000	11	...........	1405,02
	516	103,4	9,68488E-001	3,09772E-002	0,00000E+000	9,67986E-001	0,00000E+000	11	...........	1404,84
	518	103,8	9,64499E-001	3,00385E-002	0,00000E+000	9,63988E-001	0,00000E+000	11	...........	1404,84
	520	104,2	9,60502E-001	2,91200E-002	0,00000E+000	9,59990E-001	0,00000E+000	11	...........	1405,37
	522	104,6	9,56487E-001	2,82005E-002	0,00000E+000	9,55992E-001	0,00000E+000	11	...........	1405,37
	524	105	9,52501E-001	2,73554E-002	0,00000E+000	9,51994E-001	0,00000E+000	11	...........	1405,37
	526	105,4	9,48521E-001	2,64973E-002	0,00000E+000	9,47997E-001	0,00000E+000	11	...........	1405,37
	528	105,8	9,44497E-001	2,56434E-002	0,00000E+000	9,43999E-001	0,00000E+000	11	...........	1405,37
	530	106,2	9,40498E-001	2,48329E-002	0,00000E+000	9,40001E-001	0,00000E+000	11	...........	1405,37
	532	106,6	9,36502E-001	2,40377E-002	0,00000E+000	9,36003E-001	0,00000E+000	11	...........	1405,37
	534	107	9,32515E-001	2,32682E-002	0,00000E+000	9,32005E-001	0,00000E+000	11	...........	1405,37
	536	107,4	9,28524E-001	2,25337E-002	0,00000E+000	9,28008E-001	0,00000E+000	11	...........	1405,37
	538	107,8	9,24511E-001	2,18048E-002	0,00000E+000	9,24010E-001	0,00000E+000	11	...........	1405,37
	540	108,2	9,20515E-001	2,10805E-002	0,00000E+000	9,20012E-001	0,00000E+000	11	...........	1405,37
	542	108,6	9,16503E-001	2,04196E-002	0,00000E+000	9,16014E-001	0,00000E+000	11	...........	1405,37
	544	109	9,12518E-001	1,97527E-002	0,00000E+000	9,12016E-001	0,00000E+000	11	...........	1405,37
	546	109,4	9,08516E-001	1,91303E-002	0,00000E+000	9,08019E-001	0,00000E+000	11	...........	1405,02
	548	109,8	9,04530E-001	1,85049E-002	0,00000E+000	9,04021E-001	0,00000E+000	11	...........	1405,02
	550	110,2	9,00531E-001	1,78933E-002	0,00000E+000	9,00023E-001	0,00000E+000	11	...........	1404,93
	552	110,6	8,96473E-001	1,73172E-002	0,00000E+000	8,95975E-001	0,00000E+000	11	...........	1404,93
	554	111	8,92453E-001	1,67675E-002	0,00000E+000	8,91977E-001	0,00000E+000	11	...........	1404,93
	556	111,4	8,88463E-001	1,62349E-002	0,00000E+000	8,87980E-001	0,00000E+000	11	...........	1405,37
	558	111,8	8,84467E-001	1,57018E-002	0,00000E+000	8,83982E-001	0,00000E+000	11	...........	1405,37
	560	112,2	8,80475E-001	1,52022E-002	0,00000E+000	8,79984E-001	0,00000E+000	11	...........	1405,37
	562	112,6	8,76482E-001	1,47208E-002	0,00000E+000	8,75986E-001	0,00000E+000	11	...........	1405,37
	564	113	8,72465E-001	1,42392E-002	0,00000E+000	8,71988E-001	0,00000E+000	11	...........	1405,37
	566	113,4	8,68471E-001	1,37984E-002	0,00000E+000	8,67990E-001	0,00000E+000	11	...........	1405,37
	568	113,8	8,64458E-001	1,33414E-002	0,00000E+000	8,63993E-001	0,00000E+000	11	...........	1405,37
	570	114,2	8,60463E-001	1,29301E-002	0,00000E+000	8,59995E-001	0,00000E+000	11	...........	1405,37
	572	114,6	8,56462E-001	1,25113E-002	0,00000E+000	8,55997E-001	0,00000E+000	11	...........	1405,37
	574	115	8,52492E-001	1,20996E-002	0,00000E+000	8,51999E-001	0,00000E+000	11	...........	1405,37
	576	115,4	8,48478E-001	1,17057E-002	0,00000E+000	8,48001E-001	0,00000E+000	11	...........	1405,37
	578	115,8	8,44465E-001	1,13365E-002	0,00000E+000	8,44004E-001	0,00000E+000	11	...........	1405,37
	580	116,2	8,40466E-001	1,09676E-002	0,00000E+000	8,40006E-001	0,00000E+000	11	...........	1404,93
	582	116,6	8,36463E-001	1,06126E-002	0,00000E+000	8,36008E-001	0,00000E+000	11	...........	1404,93
	584	117	8,32474E-001	1,02613E-002	0,00000E+000	8,32010E-001	0,00000E+000	11	...........	1404,93
	586	117,4	8,28470E-001	9,92376E-003	0,00000E+000	8,28012E-001	0,00000E+000	11	...........	1404,84
	588	117,8	8,24466E-001	9,58533E-003	0,00000E+000	8,24015E-001	0,00000E+000	11	...........	1404,84
	590	118,2	8,20488E-001	9,26905E-003	0,00000E+000	8,20017E-001	0,00000E+000	11	...........	1405,37
	592	118,6	8,16459E-001	8,92568E-003	0,00000E+000	8,16019E-001	0,00000E+000	11	...........	1405,37
	594	119	8,12458E-001	8,60184E-003	0,00000E+000	8,12021E-001	0,00000E+000	11	...........	1405,37
	596	119,4	8,08460E-001	8,27807E-003	0,00000E+000	8,08023E-001	0,00000E+000	11	...........	1405,37
	598	119,8	8,04407E-001	7,96411E-003	0,00000E+000	8,03976E-001	0,00000E+000	11	...........	1405,37
	600	120,2	8,00392E-001	7,64282E-003	0,00000E+000	7,99978E-001	0,00000E+000	10	...........	1405,37
	602	120,6	7,96393E-001	7,33557E-003	0,00000E+000	7,95980E-001	0,00000E+000	10	...........	1405,37
	604	121	7,92383E-001	7,01064E-003	0,00000E+000	7,91982E-001	0,00000E+000	10	...........	1405,37
	606	121,4	7,88389E-001	6,69230E-003	0,00000E+000	7,87984E-001	0,00000E+000	10	...........	1405,37
	608	121,8	7,84403E-001	6,35994E-003	0,00000E+000	7,83987E-001	0,00000E+000	10	...........	1405,37
	610	122,2	7,80395E-001	6,04676E-003	0,00000E+000	7,79989E-001	0,00000E+000	10	...........	1405,37
	612	122,6	7,76410E-001	5,72506E-003	0,00000E+000	7,75991E-001	0,00000E+000	10	...........	1405,37
	614	123	7,72410E-001	5,41604E-003	0,00000E+000	7,71993E-001	0,00000E+000	10	...........	1405,37
	616	123,4	7,68398E-001	5,07156E-003	0,00000E+000	7,67995E-001	0,00000E+000	10	...........	1404,93
	618	123,8	7,64391E-001	4,73651E-003	0,00000E+000	7,63998E-001	0,00000E+000	10	...........	1404,93
	620	124,2	7,60402E-001	4,40724E-003	0,00000E+000	7,60000E-001	0,00000E+000	10	...........	1404,93
	622	124,6	7,56402E-001	4,05059E-003	0,00000E+000	7,56002E-001	0,00000E+000	10	...........	1404,93
	624	125	7,52399E-001	3,70377E-003	0,00000E+000	7,52004E-001	0,00000E+000	10	...........	1404,93
	626	125,4	7,48402E-001	3,32067E-003	0,00000E+000	7,48006E-001	0,00000E+000	10	...........	1405,37
	628	125,8	7,44409E-001	2,96195E-003	0,00000E+000	7,44009E-001	0,00000E+000	10	...........	1405,37
	630	126,2	7,40402E-001	2,58068E-003	0,00000E+000	7,40011E-001	0,00000E+000	10	...........	1405,37
	632	126,6	7,36402E-001	2,18799E-003	0,00000E+000	7,36013E-001	0,00000E+000	10	...........	1405,37
	634	127	7,32387E-001	1,80018E-003	0,00000E+000	7,32015E-001	0,00000E+000	10	...........	1405,37
	636	127,4	7,28393E-001	1,38889E-003	0,00000E+000	7,28017E-001	0,00000E+000	10	...........	1405,37
	638	127,8	7,24429E-001	9,67604E-004	0,00000E+000	7,24020E-001	0,00000E+000	10	...........	1405,37
	640	128,2	7,20410E-001	5,30129E-004	0,00000E+000	7,20022E-001	0,00000E+000	9	...........	1405,37
	642	128,6	7,16402E-001	9,58296E-005	0,00000E+000	7,16024E-001	0,00000E+000	9	...........	1405,37
	644	129	7,12368E-001	-3,65986E-004	0,00000E+000	7,11976E-001	0,00000E+000	9	...........	1405,37
	646	129,4	7,08362E-001	-8,16185E-004	0,00000E+000	7,07978E-001	0,00000E+000	9	...........	1405,37
	648	129,8	7,04376E-001	-1,27796E-003	0,00000E+000	7,03981E-001	0,00000E+000	10	...........	1405,37
	650	130,2	7,00375E-001	-1,75788E-003	0,00000E+000	6,99983E-001	0,00000E+000	10	...........	1404,93
	652	130,6	6,96363E-001	-2,23768E-003	0,00000E+000	6,95985E-001	0,00000E+000	10	...........	1404,93
	654	131	6,92359E-001	-2,73520E-003	0,00000E+000	6,91987E-001	0,00000E+000	10	...........	1404,93
	656	131,4	6,88349E-001	-3,23722E-003	0,00000E+000	6,87989E-001	0,00000E+000	10	...........	1404,84
	658	131,8	6,84359E-001	-3,74773E-003	0,00000E+000	6,83992E-001	0,00000E+000	10	...........	1404,84
	660	132,2	6,80370E-001	-4,26988E-003	0,00000E+000	6,79994E-001	0,00000E+000	10	...........	1405,37
	662	132,6	6,76345E-001	-4,79090E-003	0,00000E+000	6,75996E-001	0,00000E+000	10	...........	1405,37
	664	133	6,72375E-001	-5,32202E-003	0,00000E+000	6,71998E-001	0,00000E+000	10	...........	1405,37
	666	133,4	6,68355E-001	-5,85139E-003	0,00000E+000	6,68000E-001	0,00000E+000	10	...........	1405,37
	668	133,8	6,64350E-001	-6,37741E-003	0,00000E+000	6,64003E-001	0,00000E+000	10	...........	1405,37
	670	134,2	6,60366E-001	-6,92865E-003	0,00000E+000	6,60005E-001	0,00000E+000	10	...........	1405,37
	672	134,6	6,56367E-001	-7,47697E-003	0,00000E+000	6,56007E-001	0,00000E+000	10	...........	1405,37
	674	135	6,52360E-001	-8,01560E-003	0,00000E+000	6,52009E-001	0,00000E+000	10	...........	1405,37
	676	135,4	6,48373E-001	-8,55087E-003	0,00000E+000	6,48011E-001	0,00000E+000	10	...........	1405,37
	678	135,8	6,44376E-001	-9,09032E-003	0,00000E+000	6,44014E-001	0,00000E+000	10	...........	1405,37
	680	136,2	6,40386E-001	-9,62923E-003	0,00000E+000	6,40016E-001	0,00000E+000	11	...........	1405,37
	682	136,6	6,36376E-001	-1,01668E-002	0,00000E+000	6,36018E-001	0,00000E+000	11	...........	1405,37
	684	137	6,32373E-001	-1,06784E-002	0,00000E+000	6,32020E-001	0,00000E+000	11	...........	1405,37
	686	137,4	6,28384E-001	-1,11901E-002	0,00000E+000	6,28022E-001	0,00000E+000	11	...........	1404,93
	688	137,8	6,24379E-001	-1,16592E-002	0,00000E+000	6,24024E-001	0,00000E+000	11	...........	1404,93
	690	138,2	6,20317E-001	-1,21437E-002	0,00000E+000	6,19977E-001	0,00000E+000	11	...........	1404,93
	692	138,6	6,16331E-001	-1,26244E-002	0,00000E+000	6,15979E-001	0,00000E+000	11	...........	1404,93
	694	139	6,12327E-001	-1,30865E-002	0,00000E+000	6,11981E-001	0,00000E+000	11	...........	1404,93
	696	139,4	6,08324E-001	-1,35258E-002	0,00000E+000	6,07983E-001	0,00000E+000	11	...........	1405,37
	698	139,8	6,04331E-001	-1,39316E-002	0,00000E+000	6,03985E-001	0,00000E+000	11	...........	1405,37
	700	140,2	6,00327E-001	-1,43411E-002	0,00000E+000	5,99988E-001	0,00000E+000	11	...........	1405,37
	702	140,6	5,96318E-001	-1,47212E-002	0,00000E+000	5,95990E-001	0,00000E+000	11	...........	1405,37
	704	141	5,92332E-001	-1,50956E-002	0,00000E+000	5,91992E-001	0,00000E+000	11	...........	1405,37
	706	141,4	5,88323E-001	-1,54310E-002	0,00000E+000	5,87994E-001	0,00000E+000	11	...........	1405,37
	708	141,8	5,84326E-001	-1,57470E-002	0,00000E+000	5,83996E-001	0,00000E+000	11	...........	1405,37
	710	142,2	5,80337E-001	-1,60534E-002	0,00000E+000	5,79999E-001	0,00000E+000	11	...........	1405,37
	712	142,6	5,76334E-001	-1,63345E-002	0,00000E+000	5,76001E-001	0,00000E+000	11	...........	1405,37
	714	143	5,72329E-001	-1,65913E-002	0,00000E+000	5,72003E-001	0,00000E+000	11	...........	1405,37
	716	143,4	5,68335E-001	-1,68308E-002	0,00000E+000	5,68005E-001	0,00000E+000	11	...........	1405,37
	718	143,8	5,64333E-001	-1,70692E-002	0,00000E+000	5,64007E-001	0,00000E+000	11	...........	1405,37
	720	144,2	5,60329E-001	-1,72830E-002	0,00000E+000	5,60010E-001	0,00000E+000	11	...........	1404,93
	722	144,6	5,56321E-001	-1,74922E-002	0,00000E+000	5,56012E-001	0,00000E+000	11	...........	1404,93
	724	145	5,52321E-001	-1,76941E-002	0,00000E+000	5,52014E-001	0,00000E+000	11	...........	1404,93
	726	145,4	5,48324E-001	-1,78859E-002	0,00000E+000	5,48016E-001	0,00000E+000	11	...........	1404,84
	728	145,8	5,44345E-001	-1,80886E-002	0,00000E+000	5,44018E-001	0,00000E+000	11	...........	1404,84
	730	146,2	5,40342E-001	-1,82662E-002	0,00000E+000	5,40021E-001	0,00000E+000	11	...........	1405,37
	732	146,6	5,36325E-001	-1,84655E-002	0,00000E+000	5,36023E-001	0,00000E+000	11	...........	1405,37
	734	147	5,32332E-001	-1,86729E-002	0,00000E+000	5,32025E-001	0,00000E+000	11	...........	1405,37
	736	147,4	5,28273E-001	-1,89090E-002	0,00000E+000	5,27977E-001	0,00000E+000	11	...........	1405,37
	738	147,8	5,24279E-001	-1,91586E-002	0,00000E+000	5,23979E-001	0,00000E+000	11	...........	1405,37
	740	148,2	5,20294E-001	-1,94490E-002	0,00000E+000	5,19982E-001	0,00000E+000	11	...........	1405,37
[...]
	2609	522	7,82403E-001	4,46109E-003	0,00000E+000	7,81988E-001	0,00000E+000	10	...........	1405,02
	2611	522,4	7,78417E-001	4,20924E-003	0,00000E+000	7,77990E-001	0,00000E+000	10	...........	1405,02
	2613	522,8	7,74400E-001	3,94643E-003	0,00000E+000	7,73992E-001	0,00000E+000	10	...........	1405,02
	2615	523,2	7,70420E-001	3,68060E-003	0,00000E+000	7,69994E-001	0,00000E+000	10	...........	1405,45
	2617	523,6	7,66401E-001	3,41582E-003	0,00000E+000	7,65997E-001	0,00000E+000	10	...........	1405,45
	2619	524	7,62396E-001	3,14254E-003	0,00000E+000	7,61999E-001	0,00000E+000	10	...........	1405,45
	2621	524,4	7,58399E-001	2,86642E-003	0,00000E+000	7,58001E-001	0,00000E+000	10	...........	1405,45
	2623	524,8	7,54400E-001	2,59430E-003	0,00000E+000	7,54003E-001	0,00000E+000	10	...........	1405,45
	2625	525,2	7,50412E-001	2,30453E-003	0,00000E+000	7,50005E-001	0,00000E+000	10	...........	1405,45
	2627	525,6	7,46411E-001	2,02236E-003	0,00000E+000	7,46008E-001	0,00000E+000	10	...........	1405,45
	2629	526	7,42406E-001	1,72627E-003	0,00000E+000	7,42010E-001	0,00000E+000	10	...........	1405,45
	2631	526,4	7,38393E-001	1,43164E-003	0,00000E+000	7,38012E-001	0,00000E+000	10	...........	1405,45
	2633	526,8	7,34393E-001	1,12964E-003	0,00000E+000	7,34014E-001	0,00000E+000	10	...........	1405,45
	2635	527,2	7,30418E-001	8,22992E-004	0,00000E+000	7,30016E-001	0,00000E+000	10	...........	1405,45
	2637	527,6	7,26413E-001	5,05284E-004	0,00000E+000	7,26018E-001	0,00000E+000	9	...........	1405,45
	2639	528	7,22408E-001	1,95496E-004	0,00000E+000	7,22021E-001	0,00000E+000	9	...........	1405,45
	2641	528,4	7,18436E-001	-1,08458E-004	0,00000E+000	7,18023E-001	0,00000E+000	8	....ih..i..	1405,02
	2643	528,8	7,14357E-001	-4,55828E-004	0,00000E+000	7,13975E-001	0,00000E+000	9	...........	1405,02
	2645	529,2	7,10377E-001	-7,68131E-004	0,00000E+000	7,09977E-001	0,00000E+000	9	...........	1405,02
	2647	529,6	7,06363E-001	-1,08492E-003	0,00000E+000	7,05979E-001	0,00000E+000	10	...........	1405,02
	2649	530	7,02359E-001	-1,40280E-003	0,00000E+000	7,01982E-001	0,00000E+000	10	...........	1405,02
	2651	530,4	6,98384E-001	-1,74047E-003	0,00000E+000	6,97984E-001	0,00000E+000	10	...........	1405,02
	2653	530,8	6,94369E-001	-2,09599E-003	0,00000E+000	6,93986E-001	0,00000E+000	10	...........	1405,02
	2655	531,2	6,90364E-001	-2,42964E-003	0,00000E+000	6,89988E-001	0,00000E+000	10	...........	1405,45
	2657	531,6	6,86372E-001	-2,75511E-003	0,00000E+000	6,85990E-001	0,00000E+000	10	...........	1405,45
	2659	532	6,82374E-001	-3,10067E-003	0,00000E+000	6,81993E-001	0,00000E+000	10	...........	1405,45
	2661	532,4	6,78375E-001	-3,44468E-003	0,00000E+000	6,77995E-001	0,00000E+000	10	...........	1405,45
	2663	532,8	6,74369E-001	-3,78112E-003	0,00000E+000	6,73997E-001	0,00000E+000	10	...........	1405,45
	2665	533,2	6,70366E-001	-4,13928E-003	0,00000E+000	6,69999E-001	0,00000E+000	10	...........	1405,45
	2667	533,6	6,66379E-001	-4,49417E-003	0,00000E+000	6,66001E-001	0,00000E+000	10	...........	1405,45
	2669	534	6,62353E-001	-4,84455E-003	0,00000E+000	6,62004E-001	0,00000E+000	10	...........	1405,45
	2671	534,4	6,58365E-001	-5,20035E-003	0,00000E+000	6,58006E-001	0,00000E+000	10	...........	1405,37
	2673	534,8	6,54375E-001	-5,52884E-003	0,00000E+000	6,54008E-001	0,00000E+000	10	...........	1405,37
	2675	535,2	6,50361E-001	-5,89304E-003	0,00000E+000	6,50010E-001	0,00000E+000	10	...........	1405,54
	2677	535,6	6,46382E-001	-6,25095E-003	0,00000E+000	6,46012E-001	0,00000E+000	10	...........	1405,54
	2679	536	6,42387E-001	-6,59865E-003	0,00000E+000	6,42015E-001	0,00000E+000	10	...........	1405,54
	2681	536,4	6,38366E-001	-6,93958E-003	0,00000E+000	6,38017E-001	0,00000E+000	10	...........	1405,54
	2683	536,8	6,34368E-001	-7,30099E-003	0,00000E+000	6,34019E-001	0,00000E+000	10	...........	1405,54
	2685	537,2	6,30376E-001	-7,64830E-003	0,00000E+000	6,30021E-001	0,00000E+000	10	...........	1405,54
	2687	537,6	6,26363E-001	-8,02301E-003	0,00000E+000	6,26023E-001	0,00000E+000	10	...........	1405,54
	2689	538	6,22325E-001	-8,38660E-003	0,00000E+000	6,21976E-001	0,00000E+000	10	...........	1405,54
	2691	538,4	6,18319E-001	-8,72214E-003	0,00000E+000	6,17978E-001	0,00000E+000	10	...........	1405,54
	2693	538,8	6,14341E-001	-9,05017E-003	0,00000E+000	6,13980E-001	0,00000E+000	11	...........	1405,54
	2695	539,2	6,10325E-001	-9,38372E-003	0,00000E+000	6,09982E-001	0,00000E+000	11	...........	1405,54
	2697	539,6	6,06330E-001	-9,72669E-003	0,00000E+000	6,05984E-001	0,00000E+000	11	...........	1405,54
	2699	540	6,02349E-001	-1,00648E-002	0,00000E+000	6,01987E-001	0,00000E+000	11	...........	1405,54
	2701	540,4	5,98325E-001	-1,04046E-002	0,00000E+000	5,97989E-001	0,00000E+000	11	...........	1405,45
	2703	540,8	5,94336E-001	-1,07311E-002	0,00000E+000	5,93991E-001	0,00000E+000	11	...........	1405,45
	2705	541,2	5,90330E-001	-1,10493E-002	0,00000E+000	5,89993E-001	0,00000E+000	11	...........	1405,45
	2707	541,6	5,86321E-001	-1,13472E-002	0,00000E+000	5,85995E-001	0,00000E+000	11	...........	1405,45
	2709	542	5,82323E-001	-1,16784E-002	0,00000E+000	5,81998E-001	0,00000E+000	11	...........	1405,45
	2711	542,4	5,78342E-001	-1,19899E-002	0,00000E+000	5,78000E-001	0,00000E+000	11	...........	1405,45
	2713	542,8	5,74331E-001	-1,22985E-002	0,00000E+000	5,74002E-001	0,00000E+000	11	...........	1405,45
	2715	543,2	5,70349E-001	-1,25990E-002	0,00000E+000	5,70004E-001	0,00000E+000	11	...........	1405,45
	2717	543,6	5,66331E-001	-1,29027E-002	0,00000E+000	5,66006E-001	0,00000E+000	11	...........	1405,45
	2719	544	5,62321E-001	-1,32307E-002	0,00000E+000	5,62009E-001	0,00000E+000	11	...........	1405,45
	2721	544,4	5,58343E-001	-1,35596E-002	0,00000E+000	5,58011E-001	0,00000E+000	11	...........	1405,54
	2723	544,8	5,54330E-001	-1,39125E-002	0,00000E+000	5,54013E-001	0,00000E+000	11	...........	1405,54
	2725	545,2	5,50335E-001	-1,43018E-002	0,00000E+000	5,50015E-001	0,00000E+000	11	...........	1405,54
	2727	545,6	5,46329E-001	-1,47021E-002	0,00000E+000	5,46017E-001	0,00000E+000	11	...........	1405,54
	2729	546	5,42335E-001	-1,51588E-002	0,00000E+000	5,42019E-001	0,00000E+000	11	...........	1405,54
	2731	546,4	5,38327E-001	-1,56476E-002	0,00000E+000	5,38022E-001	0,00000E+000	11	...........	1405,45
	2733	546,8	5,34326E-001	-1,61661E-002	0,00000E+000	5,34024E-001	0,00000E+000	11	...........	1405,45
	2735	547,2	5,30274E-001	-1,67480E-002	0,00000E+000	5,29976E-001	0,00000E+000	11	...........	1405,45
	2737	547,6	5,26284E-001	-1,73559E-002	0,00000E+000	5,25978E-001	0,00000E+000	11	...........	1405,45
	2739	548	5,22287E-001	-1,80042E-002	0,00000E+000	5,21981E-001	0,00000E+000	11	...........	1405,45
	2741	548,4	5,18296E-001	-1,86863E-002	0,00000E+000	5,17983E-001	0,00000E+000	11	...........	1405,45
	2743	548,8	5,14293E-001	-1,94090E-002	0,00000E+000	5,13985E-001	0,00000E+000	11	...........	1405,45
	2745	549,2	5,10282E-001	-2,01804E-002	0,00000E+000	5,09987E-001	0,00000E+000	11	...........	1405,45
	2747	549,6	5,06281E-001	-2,09947E-002	0,00000E+000	5,05989E-001	0,00000E+000	11	...........	1405,45
	2749	550	5,02299E-001	-2,18350E-002	0,00000E+000	5,01991E-001	0,00000E+000	11	...........	1405,45
	2751	550,4	4,98287E-001	-2,27018E-002	0,00000E+000	4,97994E-001	0,00000E+000	11	...........	1405,54
	2753	550,8	4,94294E-001	-2,35935E-002	0,00000E+000	4,93996E-001	0,00000E+000	11	...........	1405,54
	2755	551,2	4,90293E-001	-2,45196E-002	0,00000E+000	4,89998E-001	0,00000E+000	11	...........	1405,45
	2757	551,6	4,86291E-001	-2,54686E-002	0,00000E+000	4,86000E-001	0,00000E+000	11	...........	1405,45
	2759	552	4,82278E-001	-2,64517E-002	0,00000E+000	4,82002E-001	0,00000E+000	11	...........	1405,45
	2761	552,4	4,78291E-001	-2,74356E-002	0,00000E+000	4,78005E-001	0,00000E+000	11	...........	1405,45
	2763	552,8	4,74288E-001	-2,84070E-002	0,00000E+000	4,74007E-001	0,00000E+000	11	...........	1405,45
	2765	553,2	4,70289E-001	-2,94255E-002	0,00000E+000	4,70009E-001	0,00000E+000	11	...........	1405,45
	2767	553,6	4,66296E-001	-3,04363E-002	0,00000E+000	4,66011E-001	0,00000E+000	11	...........	1405,45
	2769	554	4,62300E-001	-3,14299E-002	0,00000E+000	4,62013E-001	0,00000E+000	11	...........	1405,45
	2771	554,4	4,58284E-001	-3,24552E-002	0,00000E+000	4,58016E-001	0,00000E+000	11	...........	1405,45
	2773	554,8	4,54288E-001	-3,34922E-002	0,00000E+000	4,54018E-001	0,00000E+000	11	...........	1405,45
	2775	555,2	4,50295E-001	-3,45229E-002	0,00000E+000	4,50020E-001	0,00000E+000	11	...........	1405,37
	2777	555,6	4,46286E-001	-3,55399E-002	0,00000E+000	4,46022E-001	0,00000E+000	11	...........	1405,37
	2779	556	4,42299E-001	-3,65653E-002	0,00000E+000	4,42024E-001	0,00000E+000	11	...........	1405,37
	2781	556,4	4,38245E-001	-3,75781E-002	0,00000E+000	4,37977E-001	0,00000E+000	11	...........	1405,54
	2783	556,8	4,34225E-001	-3,85766E-002	0,00000E+000	4,33979E-001	0,00000E+000	11	...........	1405,54
	2785	557,2	4,30252E-001	-3,95632E-002	0,00000E+000	4,29981E-001	0,00000E+000	11	...........	1405,54
	2787	557,6	4,26245E-001	-4,05323E-002	0,00000E+000	4,25983E-001	0,00000E+000	11	...........	1405,54
	2789	558	4,22248E-001	-4,15053E-002	0,00000E+000	4,21985E-001	0,00000E+000	11	...........	1405,54
	2791	558,4	4,18246E-001	-4,24440E-002	0,00000E+000	4,17988E-001	0,00000E+000	11	...........	1405,45
	2793	558,8	4,14247E-001	-4,33670E-002	0,00000E+000	4,13990E-001	0,00000E+000	11	...........	1405,45
	2795	559,2	4,10246E-001	-4,42678E-002	0,00000E+000	4,09992E-001	0,00000E+000	11	...........	1405,45
	2797	559,6	4,06241E-001	-4,51376E-002	0,00000E+000	4,05994E-001	0,00000E+000	11	...........	1405,45
	2799	560	4,02225E-001	-4,60252E-002	0,00000E+000	4,01996E-001	0,00000E+000	11	...........	1405,45
	2801	560,4	3,98247E-001	-4,68358E-002	0,00000E+000	3,97999E-001	0,00000E+000	11	...........	1405,45
	2803	560,8	3,94238E-001	-4,76289E-002	0,00000E+000	3,94001E-001	0,00000E+000	11	...........	1405,45
	2805	561,2	3,90225E-001	-4,84212E-002	0,00000E+000	3,90003E-001	0,00000E+000	11	...........	1405,45
	2807	561,6	3,86251E-001	-4,91295E-002	0,00000E+000	3,86005E-001	0,00000E+000	11	...........	1405,45
	2809	562	3,82233E-001	-4,98150E-002	0,00000E+000	3,82007E-001	0,00000E+000	11	...........	1405,45
	2811	562,4	3,78228E-001	-5,05040E-002	0,00000E+000	3,78010E-001	0,00000E+000	11	...........	1405,37
	2813	562,8	3,74239E-001	-5,11355E-002	0,00000E+000	3,74012E-001	0,00000E+000	11	...........	1405,37
	2815	563,2	3,70242E-001	-5,16906E-002	0,00000E+000	3,70014E-001	0,00000E+000	11	...........	1405,54
	2817	563,6	3,66247E-001	-5,22276E-002	0,00000E+000	3,66016E-001	0,00000E+000	11	...........	1405,54
	2819	564	3,62249E-001	-5,27140E-002	0,00000E+000	3,62018E-001	0,00000E+000	11	...........	1405,54
	2821	564,4	3,58250E-001	-5,31805E-002	0,00000E+000	3,58021E-001	0,00000E+000	11	...........	1405,45
	2823	564,8	3,54237E-001	-5,35694E-002	0,00000E+000	3,54023E-001	0,00000E+000	11	...........	1405,45
	2825	565,2	3,50232E-001	-5,39454E-002	0,00000E+000	3,50025E-001	0,00000E+000	11	...........	1405,45
	2827	565,6	3,46204E-001	-5,42429E-002	0,00000E+000	3,45977E-001	0,00000E+000	11	...........	1405,45
	2829	566	3,42188E-001	-5,44886E-002	0,00000E+000	3,41979E-001	0,00000E+000	11	...........	1405,45
	2831	566,4	3,38200E-001	-5,46937E-002	0,00000E+000	3,37982E-001	0,00000E+000	11	...........	1405,45
	2833	566,8	3,34189E-001	-5,48486E-002	0,00000E+000	3,33984E-001	0,00000E+000	11	...........	1405,45
	2835	567,2	3,30184E-001	-5,49603E-002	0,00000E+000	3,29986E-001	0,00000E+000	11	...........	1405,45
	2837	567,6	3,26198E-001	-5,50262E-002	0,00000E+000	3,25988E-001	0,00000E+000	11	...........	1405,45
	2839	568	3,22188E-001	-5,50139E-002	0,00000E+000	3,21990E-001	0,00000E+000	11	...........	1405,45
	2841	568,4	3,18184E-001	-5,49720E-002	0,00000E+000	3,17993E-001	0,00000E+000	11	...........	1405,45
	2843	568,8	3,14204E-001	-5,48717E-002	0,00000E+000	3,13995E-001	0,00000E+000	11	...........	1405,45
	2845	569,2	3,10200E-001	-5,46980E-002	0,00000E+000	3,09997E-001	0,00000E+000	11	...........	1405,45
	2847	569,6	3,06196E-001	-5,44648E-002	0,00000E+000	3,05999E-001	0,00000E+000	11	...........	1405,45
	2849	570	3,02194E-001	-5,41540E-002	0,00000E+000	3,02001E-001	0,00000E+000	11	...........	1405,45
	2851	570,4	2,98195E-001	-5,37872E-002	0,00000E+000	2,98003E-001	0,00000E+000	11	...........	1405,45
	2853	570,8	2,94210E-001	-5,33496E-002	0,00000E+000	2,94006E-001	0,00000E+000	11	...........	1405,45
	2855	571,2	2,90214E-001	-5,28496E-002	0,00000E+000	2,90008E-001	0,00000E+000	11	...........	1405,45
	2857	571,6	2,86222E-001	-5,22798E-002	0,00000E+000	2,86010E-001	0,00000E+000	11	...........	1405,45
	2859	572	2,82207E-001	-5,15922E-002	0,00000E+000	2,82012E-001	0,00000E+000	11	...........	1405,45
	2861	572,4	2,78200E-001	-5,08447E-002	0,00000E+000	2,78014E-001	0,00000E+000	11	...........	1405,54
	2863	572,8	2,74204E-001	-4,99931E-002	0,00000E+000	2,74017E-001	0,00000E+000	11	...........	1405,54
	2865	573,2	2,70201E-001	-4,90338E-002	0,00000E+000	2,70019E-001	0,00000E+000	11	...........	1405,45
	2867	573,6	2,66211E-001	-4,79606E-002	0,00000E+000	2,66021E-001	0,00000E+000	11	...........	1405,45
	2869	574	2,62212E-001	-4,67498E-002	0,00000E+000	2,62023E-001	0,00000E+000	11	...........	1405,45
	2871	574,4	2,58155E-001	-4,54441E-002	0,00000E+000	2,57975E-001	0,00000E+000	11	...........	1405,45
	2873	574,8	2,54155E-001	-4,39680E-002	0,00000E+000	2,53978E-001	0,00000E+000	11	...........	1405,45
	2875	575,2	2,50149E-001	-4,23753E-002	0,00000E+000	2,49980E-001	0,00000E+000	11	...........	1405,45
	2877	575,6	2,46160E-001	-4,06136E-002	0,00000E+000	2,45982E-001	0,00000E+000	11	...........	1405,45
	2879	576	2,42150E-001	-3,87894E-002	0,00000E+000	2,41984E-001	0,00000E+000	11	...........	1405,45
	2881	576,4	2,38158E-001	-3,69067E-002	0,00000E+000	2,37986E-001	0,00000E+000	11	...........	1405,37
	2883	576,8	2,34161E-001	-3,51200E-002	0,00000E+000	2,33989E-001	0,00000E+000	11	...........	1405,37
	2885	577,2	2,30166E-001	-3,34733E-002	0,00000E+000	2,29991E-001	0,00000E+000	11	...........	1405,54
	2887	577,6	2,26142E-001	-3,19710E-002	0,00000E+000	2,25993E-001	0,00000E+000	11	...........	1405,54
	2889	578	2,22157E-001	-3,06242E-002	0,00000E+000	2,21995E-001	0,00000E+000	11	...........	1405,54
	2891	578,4	2,18155E-001	-2,93805E-002	0,00000E+000	2,17997E-001	0,00000E+000	11	...........	1405,54
	2893	578,8	2,14159E-001	-2,82708E-002	0,00000E+000	2,14000E-001	0,00000E+000	11	...........	1405,54
	2895	579,2	2,10164E-001	-2,72632E-002	0,00000E+000	2,10002E-001	0,00000E+000	11	...........	1405,45
	2897	579,6	2,06167E-001	-2,63635E-002	0,00000E+000	2,06004E-001	0,00000E+000	11	...........	1405,45
	2899	580	2,02156E-001	-2,55462E-002	0,00000E+000	2,02006E-001	0,00000E+000	11	...........	1405,45
	2901	580,4	1,98161E-001	-2,47894E-002	0,00000E+000	1,98008E-001	0,00000E+000	11	...........	1405,45
	2903	580,8	1,94172E-001	-2,40948E-002	0,00000E+000	1,94011E-001	0,00000E+000	11	...........	1405,45
	2905	581,2	1,90148E-001	-2,34787E-002	0,00000E+000	1,90013E-001	0,00000E+000	11	...........	1405,45
	2907	581,6	1,86170E-001	-2,29082E-002	0,00000E+000	1,86015E-001	0,00000E+000	11	...........	1405,45
	2909	582	1,82156E-001	-2,23888E-002	0,00000E+000	1,82017E-001	0,00000E+000	11	...........	1405,45
	2911	582,4	1,78149E-001	-2,18893E-002	0,00000E+000	1,78019E-001	0,00000E+000	11	...........	1405,45
	2913	582,8	1,74160E-001	-2,14563E-002	0,00000E+000	1,74022E-001	0,00000E+000	11	...........	1405,45
	2915	583,2	1,70160E-001	-2,10318E-002	0,00000E+000	1,70024E-001	0,00000E+000	11	...........	1405,28
	2917	583,6	1,66128E-001	-2,06403E-002	0,00000E+000	1,65976E-001	0,00000E+000	11	...........	1405,28
	2919	584	1,62134E-001	-2,02693E-002	0,00000E+000	1,61978E-001	0,00000E+000	11	...........	1405,28
	2921	584,4	1,58112E-001	-1,99169E-002	0,00000E+000	1,57980E-001	0,00000E+000	11	...........	1405,45
	2923	584,8	1,54108E-001	-1,95925E-002	0,00000E+000	1,53983E-001	0,00000E+000	11	...........	1405,45
	2925	585,2	1,50099E-001	-1,92867E-002	0,00000E+000	1,49985E-001	0,00000E+000	11	...........	1405,45
	2927	585,6	1,46104E-001	-1,89985E-002	0,00000E+000	1,45987E-001	0,00000E+000	11	...........	1405,45
	2929	586	1,42124E-001	-1,87181E-002	0,00000E+000	1,41989E-001	0,00000E+000	11	...........	1405,45
	2931	586,4	1,38114E-001	-1,84575E-002	0,00000E+000	1,37991E-001	0,00000E+000	11	...........	1405,54
	2933	586,8	1,34108E-001	-1,81929E-002	0,00000E+000	1,33994E-001	0,00000E+000	11	...........	1405,54
	2935	587,2	1,30125E-001	-1,79435E-002	0,00000E+000	1,29996E-001	0,00000E+000	11	...........	1405,45
	2937	587,6	1,26109E-001	-1,77053E-002	0,00000E+000	1,25998E-001	0,00000E+000	11	...........	1405,45
	2939	588	1,22117E-001	-1,74824E-002	0,00000E+000	1,22000E-001	0,00000E+000	11	...........	1405,45
	2941	588,4	1,18117E-001	-1,72514E-002	0,00000E+000	1,18002E-001	0,00000E+000	11	...........	1405,45
	2943	588,8	1,14114E-001	-1,70328E-002	0,00000E+000	1,14004E-001	0,00000E+000	11	...........	1405,45
	2945	589,2	1,10120E-001	-1,68307E-002	0,00000E+000	1,10007E-001	0,00000E+000	11	...........	1405,45
	2947	589,6	1,06125E-001	-1,66030E-002	0,00000E+000	1,06009E-001	0,00000E+000	11	...........	1405,45
	2949	590	1,02121E-001	-1,64045E-002	0,00000E+000	1,02011E-001	0,00000E+000	11	...........	1405,45
	2951	590,4	9,81104E-002	-1,61952E-002	0,00000E+000	9,80133E-002	0,00000E+000	11	...........	1405,37
	2953	590,8	9,41273E-002	-1,60038E-002	0,00000E+000	9,40155E-002	0,00000E+000	11	...........	1405,37
	2955	591,2	9,01310E-002	-1,58034E-002	0,00000E+000	9,00177E-002	0,00000E+000	11	...........	1405,54
	2957	591,6	8,61386E-002	-1,56080E-002	0,00000E+000	8,60199E-002	0,00000E+000	11	...........	1405,54
	2959	592	8,21374E-002	-1,53919E-002	0,00000E+000	8,20221E-002	0,00000E+000	11	...........	1405,54
	2961	592,4	7,81358E-002	-1,51920E-002	0,00000E+000	7,80243E-002	0,00000E+000	11	...........	1405,54
	2963	592,8	7,40687E-002	-1,49941E-002	0,00000E+000	7,39765E-002	0,00000E+000	11	...........	1405,54
	2965	593,2	7,00765E-002	-1,47647E-002	0,00000E+000	6,99787E-002	0,00000E+000	11	...........	1405,45
	2967	593,6	6,60804E-002	-1,45420E-002	0,00000E+000	6,59809E-002	0,00000E+000	11	...........	1405,45
	2969	594	6,20786E-002	-1,43128E-002	0,00000E+000	6,19831E-002	0,00000E+000	11	...........	1405,45
	2971	594,4	5,80748E-002	-1,40465E-002	0,00000E+000	5,79853E-002	0,00000E+000	11	...........	1405,54
	2973	594,8	5,40995E-002	-1,37574E-002	0,00000E+000	5,39875E-002	0,00000E+000	11	...........	1405,54
	2975	595,2	5,00782E-002	-1,34309E-002	0,00000E+000	4,99896E-002	0,00000E+000	11	...........	1405,45
	2977	595,6	4,60726E-002	-1,30673E-002	0,00000E+000	4,59918E-002	0,00000E+000	11	...........	1405,45
	2979	596	4,20735E-002	-1,26837E-002	0,00000E+000	4,19940E-002	0,00000E+000	11	...........	1405,45
	2981	596,4	3,80862E-002	-1,22400E-002	0,00000E+000	3,79962E-002	0,00000E+000	11	...........	1405,37
	2983	596,8	3,40921E-002	-1,17742E-002	0,00000E+000	3,39984E-002	0,00000E+000	11	...........	1405,37
	2985	597,2	3,00993E-002	-1,12695E-002	0,00000E+000	3,00006E-002	0,00000E+000	11	...........	1405,37
	2987	597,6	2,60937E-002	-1,07464E-002	0,00000E+000	2,60028E-002	0,00000E+000	11	...........	1405,37
	2989	598	2,20729E-002	-1,02181E-002	0,00000E+000	2,20050E-002	0,00000E+000	11	...........	1405,37
	2991	598,4	1,80863E-002	-9,70686E-003	0,00000E+000	1,80072E-002	0,00000E+000	11	...........	1405,45
	2993	598,8	1,40880E-002	-9,23506E-003	0,00000E+000	1,40094E-002	0,00000E+000	11	...........	1405,45
	2995	599,2	1,00884E-002	-8,81879E-003	0,00000E+000	1,00116E-002	0,00000E+000	11	...........	1405,54
	2997	599,6	6,09608E-003	-8,47766E-003	0,00000E+000	6,01381E-003	0,00000E+000	11	...........	1405,54
	2999	600	2,09428E-003	-8,19297E-003	0,00000E+000	2,01601E-003	0,00000E+000	11	...........	1405,54
	3000	600,2	9,64615E-005	-8,07802E-003	0,00000E+000	1,71065E-005	0,00000E+000	11	...........	1405,45
CURVE4	TABLE
	Pt	T	Vf	Im	Vu	Sig	Ach	IERange	Over	Temp
	#	s	V vs. Ref.	A	V	V	V	#	bits	deg C
	3001	600,4	9,59113E-005	-7,62433E-003	0,00000E+000	1,71065E-005	0,00000E+000	10	...........	1405,45