File: docs/utils/cv_sample.DTA
EXPLAIN
TAG	CV
TITLE	LABEL	Cyclic Voltammetry	Test &Identifier
DATE	LABEL	7/3/2023	Date
TIME	LABEL	12:42:38	Time
NOTES	NOTES	1	&Notes...

PSTAT	PSTAT	IFC1010-29239	Potentiostat
VINIT	POTEN	-1,00000E-001	F	Initial &E (V)
VLIMIT1	POTEN	-8,00000E-001	F	Scan Limit &1 (V)
VLIMIT2	POTEN	-1,00000E-001	F	Scan Limit &2 (V)
VFINAL	POTEN	-1,00000E-001	F	Final &E (V)
SCANRATE	QUANT	2,00000E+000	&Scan Rate (mV/s)
STEPSIZE	QUANT	2,00000E+000	St&ep Size (mV)
CYCLES	IQUANT	3	C&ycles (#)
IMODE	SELECTOR	0	I/E Range &Mode
IRANGE	QUANT	1,00000E+003	&Max Current (mA)
AREA	QUANT	1,00000E+000	Electrode &Area (cm^2)
ELECTRODETYPE	SELECTOR	0	Electrode Type
STRIPPING	TOGGLE	F	Used for Stripping
POLARITY	TOGGLE	F	Signal Polarity
CONDIT	TWOPARAM	F	1,50000E+001	0,00000E+000	Conditionin&g	Time(s)	E(V)
DELAY	TWOPARAM	T	5,00000E+000	0,00000E+000	Init. De&lay	Time(s)	Stab.(mV/s)
EQDELAY	QUANT	0,00000E+000	Equil. &Time (s)
IRCOMP	SELECTOR	0	IRCom&p
PFCOR	QUANT	5,00000E+001	PF Corr. (ohm)
SAMPLINGMODE	SELECTOR	1	Sampling &Mode
OCVCURVE	TABLE	20
	Pt	T	Vf	Vm	Ach	Over	Temp
	#	s	V vs. Ref.	V	V	bits	deg C
	0	0,25	-4,49566E-001	-4,49566E-001	0,00000E+000	...........	1407,99
	1	0,5	-4,49566E-001	-4,49547E-001	0,00000E+000	...........	1407,99
	2	0,75	-4,49563E-001	-4,49501E-001	0,00000E+000	...........	1407,99
	3	1	-4,49554E-001	-4,49470E-001	0,00000E+000	...........	1407,99
	4	1,25	-4,49534E-001	-4,49434E-001	0,00000E+000	...........	1407,99
	5	1,5	-4,49506E-001	-4,49408E-001	0,00000E+000	...........	1407,99
	6	1,75	-4,49474E-001	-4,49373E-001	0,00000E+000	...........	1407,47
	7	2	-4,49441E-001	-4,49327E-001	0,00000E+000	...........	1407,47
	8	2,25	-4,49406E-001	-4,49294E-001	0,00000E+000	...........	1407,47
	9	2,5	-4,49371E-001	-4,49258E-001	0,00000E+000	...........	1407,47
	10	2,75	-4,49334E-001	-4,49232E-001	0,00000E+000	...........	1407,47
	11	3	-4,49298E-001	-4,49198E-001	0,00000E+000	...........	1407,47
	12	3,25	-4,49264E-001	-4,49153E-001	0,00000E+000	...........	1407,47
	13	3,5	-4,49231E-001	-4,49137E-001	0,00000E+000	...........	1407,47
	14	3,75	-4,49197E-001	-4,49096E-001	0,00000E+000	...........	1407,91
	15	4	-4,49165E-001	-4,49054E-001	0,00000E+000	...........	1407,91
	16	4,25	-4,49131E-001	-4,49026E-001	0,00000E+000	...........	1407,91
	17	4,5	-4,49097E-001	-4,49007E-001	0,00000E+000	...........	1407,91
	18	4,75	-4,49064E-001	-4,48965E-001	0,00000E+000	...........	1407,56
	19	5	-4,49032E-001	-4,48929E-001	0,00000E+000	...........	1407,56
EOC	QUANT	-0,4490322	Open Circuit (V)
PSTATMODEL	IQUANT	64	Pstat Model
PSTATSECTION	LABEL	IFC1010-29239	Pstat Section
PSTATSERIALNO	LABEL	29239	Pstat Serial Number
CTRLMODE	IQUANT	1	Control Mode
ELECTROMETER	IQUANT	0	RE=0 or CS=1
IESTAB	IQUANT	2	I/E Stability
CASPEED	IQUANT	4	Control Amp Speed
CONVENTION	IQUANT	1	Current Convention
ICHRANGE	IQUANT	2	Ich Range
ICHRANGEMODE	TOGGLE	F	Ich Auto Range
ICHOFFSETENABLE	TOGGLE	F	Ich Offset Enable
ICHOFFSET	QUANT	0	Ich Offset (V)
ICHFILTER	IQUANT	4	Ich Filter
VCHRANGE	IQUANT	2	Vch Range
VCHRANGEMODE	TOGGLE	F	Vch Auto Range
VCHOFFSETENABLE	TOGGLE	F	Vch Offset Enable
VCHOFFSET	QUANT	0	Vch Offset (V)
VCHFILTER	IQUANT	4	Vch Filter
IERANGELOWERLIMIT	IQUANT	4	I/E Range Lower Limit
IERANGEMODE	TOGGLE	T	I/E AutoRange
IERANGE	IQUANT	12	I/E Range
ACHSELECT	IQUANT	0	Ach Select
ACHRANGE	IQUANT	2	Ach Range
ACHOFFSETENABLE	TOGGLE	F	Ach Offset Enable
ACHOFFSET	QUANT	0	Ach Offset (V)
ACHFILTER	IQUANT	1	Ach Filter
SENSECABLEID	IQUANT	13	Sense Cable ID
PWRCABLEID	IQUANT	13	Power Cable ID
DCCALDATE	LABEL	2/14/2023	DC Calibration Date
ACCALDATE	LABEL	7/8/2021	AC Calibration Date
FRAMEWORKVERSION	LABEL	7.8.4	Framework Version
INSTRUMENTVERSION	LABEL	4.42	Instrument Version
CURVE1	TABLE
	Pt	T	Vf	Im	Vu	Sig	Ach	IERange	Over	Temp
	#	s	V vs. Ref.	A	V	V	V	#	bits	deg C
	0	1	-1,00084E-001	7,95492E-005	0,00000E+000	-9,99971E-002	0,00000E+000	12	...........	1407,99
	2	3	-1,04067E-001	3,48236E-005	0,00000E+000	-1,03995E-001	0,00000E+000	10	...........	1407,56
	4	5	-1,08077E-001	2,70323E-005	0,00000E+000	-1,08005E-001	0,00000E+000	8	...........	1407,56
	6	7	-1,12064E-001	2,29838E-005	0,00000E+000	-1,12002E-001	0,00000E+000	8	...........	1407,56
	8	9	-1,16065E-001	2,03060E-005	0,00000E+000	-1,16000E-001	0,00000E+000	8	...........	1407,47
	10	11	-1,20069E-001	1,83783E-005	0,00000E+000	-1,19997E-001	0,00000E+000	8	...........	1407,47
	12	13	-1,24054E-001	1,68957E-005	0,00000E+000	-1,23995E-001	0,00000E+000	8	...........	1407,56
	14	15	-1,28074E-001	1,57081E-005	0,00000E+000	-1,28005E-001	0,00000E+000	8	...........	1407,47
	16	17	-1,32085E-001	1,47122E-005	0,00000E+000	-1,32002E-001	0,00000E+000	8	...........	1407,47
	18	19	-1,36074E-001	1,38930E-005	0,00000E+000	-1,36000E-001	0,00000E+000	8	...........	1407,56
	20	21	-1,40072E-001	1,31652E-005	0,00000E+000	-1,39997E-001	0,00000E+000	8	...........	1407,47
	22	23	-1,44073E-001	1,25384E-005	0,00000E+000	-1,43995E-001	0,00000E+000	8	...........	1407,56
	24	25	-1,48080E-001	1,19869E-005	0,00000E+000	-1,48005E-001	0,00000E+000	8	...........	1407,47
	26	27	-1,52082E-001	1,14962E-005	0,00000E+000	-1,52002E-001	0,00000E+000	8	...........	1407,47
	28	29	-1,56080E-001	1,10505E-005	0,00000E+000	-1,56000E-001	0,00000E+000	8	...........	1407,47
	30	31	-1,60079E-001	1,06497E-005	0,00000E+000	-1,59997E-001	0,00000E+000	8	...........	1407,47
	32	33	-1,64082E-001	1,02815E-005	0,00000E+000	-1,63995E-001	0,00000E+000	8	...........	1407,47
	34	35	-1,68104E-001	9,94319E-006	0,00000E+000	-1,68005E-001	0,00000E+000	8	...........	1407,47
	36	37	-1,72086E-001	9,62678E-006	0,00000E+000	-1,72002E-001	0,00000E+000	8	...........	1407,47
	38	39	-1,76087E-001	9,34039E-006	0,00000E+000	-1,76000E-001	0,00000E+000	8	...........	1407,47
	40	41	-1,80097E-001	9,08105E-006	0,00000E+000	-1,79997E-001	0,00000E+000	8	...........	1407,47
	42	43	-1,84085E-001	8,82852E-006	0,00000E+000	-1,83995E-001	0,00000E+000	8	...........	1407,56
	44	45	-1,88102E-001	8,59403E-006	0,00000E+000	-1,88005E-001	0,00000E+000	8	...........	1407,47
	46	47	-1,92100E-001	8,37310E-006	0,00000E+000	-1,92002E-001	0,00000E+000	8	...........	1407,47
	48	49	-1,96090E-001	8,16394E-006	0,00000E+000	-1,96000E-001	0,00000E+000	8	...........	1407,47
	50	51	-2,00109E-001	7,95488E-006	0,00000E+000	-1,99997E-001	0,00000E+000	7	...........	1407,47
	52	53	-2,04113E-001	7,77798E-006	0,00000E+000	-2,03995E-001	0,00000E+000	7	...........	1407,56
	54	55	-2,08116E-001	7,59409E-006	0,00000E+000	-2,08005E-001	0,00000E+000	7	...........	1407,56
	56	57	-2,12111E-001	7,42219E-006	0,00000E+000	-2,12002E-001	0,00000E+000	7	...........	1407,56
	58	59	-2,16101E-001	7,26175E-006	0,00000E+000	-2,16000E-001	0,00000E+000	7	...........	1407,56
	60	61	-2,20124E-001	7,10704E-006	0,00000E+000	-2,19997E-001	0,00000E+000	7	...........	1407,56
	62	63	-2,24109E-001	6,96279E-006	0,00000E+000	-2,23995E-001	0,00000E+000	7	...........	1407,56
	64	65	-2,28113E-001	6,82106E-006	0,00000E+000	-2,28005E-001	0,00000E+000	7	...........	1407,56
	66	67	-2,32127E-001	6,68370E-006	0,00000E+000	-2,32002E-001	0,00000E+000	7	...........	1407,56
	68	69	-2,36122E-001	6,55561E-006	0,00000E+000	-2,36000E-001	0,00000E+000	7	...........	1407,56
	70	71	-2,40117E-001	6,43058E-006	0,00000E+000	-2,39997E-001	0,00000E+000	7	...........	1407,56
	72	73	-2,44129E-001	6,31015E-006	0,00000E+000	-2,43995E-001	0,00000E+000	7	...........	1407,56
	74	75	-2,48139E-001	6,19295E-006	0,00000E+000	-2,48005E-001	0,00000E+000	7	...........	1407,56
	76	77	-2,52138E-001	6,08273E-006	0,00000E+000	-2,52002E-001	0,00000E+000	7	...........	1407,56
	78	79	-2,56144E-001	5,97197E-006	0,00000E+000	-2,56000E-001	0,00000E+000	7	...........	1407,56
	80	81	-2,60138E-001	5,86466E-006	0,00000E+000	-2,59997E-001	0,00000E+000	7	...........	1407,56
	82	83	-2,64127E-001	5,76321E-006	0,00000E+000	-2,63995E-001	0,00000E+000	7	...........	1407,47
	84	85	-2,68133E-001	5,66122E-006	0,00000E+000	-2,68005E-001	0,00000E+000	7	...........	1407,56
	86	87	-2,72138E-001	5,56236E-006	0,00000E+000	-2,72002E-001	0,00000E+000	7	...........	1407,56
	88	89	-2,76150E-001	5,46406E-006	0,00000E+000	-2,76000E-001	0,00000E+000	7	...........	1407,56
	90	91	-2,80127E-001	5,36839E-006	0,00000E+000	-2,79997E-001	0,00000E+000	7	...........	1407,56
	92	93	-2,84134E-001	5,27308E-006	0,00000E+000	-2,83995E-001	0,00000E+000	7	...........	1407,56
	94	95	-2,88148E-001	5,17884E-006	0,00000E+000	-2,88005E-001	0,00000E+000	7	...........	1407,56
	96	97	-2,92147E-001	5,08367E-006	0,00000E+000	-2,92002E-001	0,00000E+000	7	...........	1407,56
	98	99	-2,96156E-001	4,98777E-006	0,00000E+000	-2,96000E-001	0,00000E+000	7	...........	1407,56
	100	101	-3,00163E-001	4,89267E-006	0,00000E+000	-2,99997E-001	0,00000E+000	7	...........	1407,56
	102	103	-3,04135E-001	4,79673E-006	0,00000E+000	-3,03995E-001	0,00000E+000	7	...........	1407,56
	104	105	-3,08167E-001	4,70048E-006	0,00000E+000	-3,08005E-001	0,00000E+000	7	...........	1407,56
	106	107	-3,12158E-001	4,60102E-006	0,00000E+000	-3,12002E-001	0,00000E+000	7	...........	1407,56
	108	109	-3,16157E-001	4,49975E-006	0,00000E+000	-3,16000E-001	0,00000E+000	7	...........	1407,56
	110	111	-3,20148E-001	4,39482E-006	0,00000E+000	-3,19997E-001	0,00000E+000	7	...........	1407,56
	112	113	-3,24158E-001	4,28362E-006	0,00000E+000	-3,23995E-001	0,00000E+000	7	...........	1407,56
	114	115	-3,28174E-001	4,16708E-006	0,00000E+000	-3,28005E-001	0,00000E+000	7	...........	1407,56
	116	117	-3,32154E-001	4,04686E-006	0,00000E+000	-3,32002E-001	0,00000E+000	7	...........	1407,56
	118	119	-3,36165E-001	3,91711E-006	0,00000E+000	-3,36000E-001	0,00000E+000	7	...........	1407,47
	120	121	-3,40169E-001	3,77743E-006	0,00000E+000	-3,39997E-001	0,00000E+000	7	...........	1407,47
	122	123	-3,44158E-001	3,62880E-006	0,00000E+000	-3,43995E-001	0,00000E+000	7	...........	1407,56
	124	125	-3,48171E-001	3,46487E-006	0,00000E+000	-3,48005E-001	0,00000E+000	7	...........	1407,56
	126	127	-3,52175E-001	3,28924E-006	0,00000E+000	-3,52002E-001	0,00000E+000	7	...........	1407,56
	128	129	-3,56169E-001	3,09103E-006	0,00000E+000	-3,56000E-001	0,00000E+000	7	...........	1407,47
	130	131	-3,60191E-001	2,87496E-006	0,00000E+000	-3,59997E-001	0,00000E+000	7	...........	1407,56
	132	133	-3,64177E-001	2,63848E-006	0,00000E+000	-3,63995E-001	0,00000E+000	7	...........	1407,47
	134	135	-3,68196E-001	2,37368E-006	0,00000E+000	-3,68005E-001	0,00000E+000	7	...........	1407,47
	136	137	-3,72198E-001	2,07704E-006	0,00000E+000	-3,72002E-001	0,00000E+000	7	...........	1407,56
	138	139	-3,76183E-001	1,74983E-006	0,00000E+000	-3,76000E-001	0,00000E+000	7	...........	1407,56
	140	141	-3,80181E-001	1,38551E-006	0,00000E+000	-3,79997E-001	0,00000E+000	7	...........	1407,56
	142	143	-3,84183E-001	9,68178E-007	0,00000E+000	-3,83995E-001	0,00000E+000	7	...........	1407,47
	144	145	-3,88207E-001	4,94478E-007	0,00000E+000	-3,88005E-001	0,00000E+000	6	...........	1407,56
	146	147	-3,92181E-001	-2,04663E-008	0,00000E+000	-3,92002E-001	0,00000E+000	6	...........	1407,47
	148	149	-3,96183E-001	-6,03912E-007	0,00000E+000	-3,96000E-001	0,00000E+000	6	...........	1407,21
	150	151	-4,00185E-001	-1,26007E-006	0,00000E+000	-3,99997E-001	0,00000E+000	7	...........	1407,03
	152	153	-4,04182E-001	-1,99214E-006	0,00000E+000	-4,03995E-001	0,00000E+000	7	...........	1407,47
	154	155	-4,08201E-001	-2,80305E-006	0,00000E+000	-4,08005E-001	0,00000E+000	7	...........	1407,56
	156	157	-4,12209E-001	-3,69849E-006	0,00000E+000	-4,12002E-001	0,00000E+000	7	...........	1407,47
	158	159	-4,16187E-001	-4,68001E-006	0,00000E+000	-4,16000E-001	0,00000E+000	7	...........	1407,56
	160	161	-4,20202E-001	-5,78386E-006	0,00000E+000	-4,19997E-001	0,00000E+000	7	...........	1407,56
	162	163	-4,24201E-001	-6,98370E-006	0,00000E+000	-4,23995E-001	0,00000E+000	7	...........	1407,56
	164	165	-4,28204E-001	-8,31819E-006	0,00000E+000	-4,28005E-001	0,00000E+000	7	...........	1407,56
	166	167	-4,32210E-001	-9,76635E-006	0,00000E+000	-4,32002E-001	0,00000E+000	8	...........	1407,47
	168	169	-4,36225E-001	-1,13207E-005	0,00000E+000	-4,36000E-001	0,00000E+000	8	...........	1407,47
	170	171	-4,40210E-001	-1,29956E-005	0,00000E+000	-4,39997E-001	0,00000E+000	8	...........	1407,56
	172	173	-4,44216E-001	-1,48002E-005	0,00000E+000	-4,43995E-001	0,00000E+000	8	...........	1407,56
	174	175	-4,48210E-001	-1,67687E-005	0,00000E+000	-4,48005E-001	0,00000E+000	8	...........	1407,56
	176	177	-4,52211E-001	-1,88493E-005	0,00000E+000	-4,52002E-001	0,00000E+000	8	...........	1407,56
	178	179	-4,56222E-001	-2,10511E-005	0,00000E+000	-4,56000E-001	0,00000E+000	8	...........	1407,47
	180	181	-4,60211E-001	-2,33724E-005	0,00000E+000	-4,59997E-001	0,00000E+000	8	...........	1407,56
	182	183	-4,64226E-001	-2,58321E-005	0,00000E+000	-4,63995E-001	0,00000E+000	8	...........	1407,47
	184	185	-4,68228E-001	-2,84407E-005	0,00000E+000	-4,68005E-001	0,00000E+000	8	...........	1407,56
	186	187	-4,72229E-001	-3,11548E-005	0,00000E+000	-4,72002E-001	0,00000E+000	8	...........	1407,56
	188	189	-4,76224E-001	-3,39797E-005	0,00000E+000	-4,76000E-001	0,00000E+000	8	...........	1407,56
	190	191	-4,80218E-001	-3,69026E-005	0,00000E+000	-4,79997E-001	0,00000E+000	8	...........	1407,47
	192	193	-4,84222E-001	-3,98818E-005	0,00000E+000	-4,83995E-001	0,00000E+000	8	...........	1407,47
	194	195	-4,88232E-001	-4,29787E-005	0,00000E+000	-4,88005E-001	0,00000E+000	8	...........	1407,47
	196	197	-4,92233E-001	-4,61502E-005	0,00000E+000	-4,92002E-001	0,00000E+000	8	...........	1407,47
	198	199	-4,96219E-001	-4,92797E-005	0,00000E+000	-4,96000E-001	0,00000E+000	8	...........	1407,56
	200	201	-5,00237E-001	-5,23937E-005	0,00000E+000	-4,99997E-001	0,00000E+000	8	...........	1407,56
	202	203	-5,04234E-001	-5,55648E-005	0,00000E+000	-5,03995E-001	0,00000E+000	8	...........	1407,56
	204	205	-5,08234E-001	-5,86160E-005	0,00000E+000	-5,08005E-001	0,00000E+000	8	...........	1407,56
	206	207	-5,12236E-001	-6,15169E-005	0,00000E+000	-5,12002E-001	0,00000E+000	8	...........	1407,56
	208	209	-5,16233E-001	-6,42281E-005	0,00000E+000	-5,16000E-001	0,00000E+000	8	...........	1407,56
	210	211	-5,20248E-001	-6,67451E-005	0,00000E+000	-5,19997E-001	0,00000E+000	8	...........	1407,56
	212	213	-5,24221E-001	-6,89911E-005	0,00000E+000	-5,23995E-001	0,00000E+000	8	...........	1407,56
	214	215	-5,28241E-001	-7,09895E-005	0,00000E+000	-5,28005E-001	0,00000E+000	8	...........	1407,56
	216	217	-5,32259E-001	-7,26796E-005	0,00000E+000	-5,32002E-001	0,00000E+000	8	...........	1407,56
	218	219	-5,36246E-001	-7,40088E-005	0,00000E+000	-5,36000E-001	0,00000E+000	8	...........	1407,56
	220	221	-5,40258E-001	-7,50305E-005	0,00000E+000	-5,39997E-001	0,00000E+000	8	...........	1407,56
	222	223	-5,44253E-001	-7,56887E-005	0,00000E+000	-5,43995E-001	0,00000E+000	8	...........	1407,64
	224	225	-5,48257E-001	-7,60876E-005	0,00000E+000	-5,48005E-001	0,00000E+000	8	...........	1407,56
	226	227	-5,52261E-001	-7,61517E-005	0,00000E+000	-5,52002E-001	0,00000E+000	8	...........	1407,56
	228	229	-5,56252E-001	-7,60045E-005	0,00000E+000	-5,56000E-001	0,00000E+000	8	...........	1407,56
	230	231	-5,60247E-001	-7,56423E-005	0,00000E+000	-5,59997E-001	0,00000E+000	8	...........	1407,56
	232	233	-5,64261E-001	-7,51916E-005	0,00000E+000	-5,63995E-001	0,00000E+000	8	...........	1407,56
	234	235	-5,68263E-001	-7,46670E-005	0,00000E+000	-5,68005E-001	0,00000E+000	8	...........	1407,56
	236	237	-5,72265E-001	-7,40723E-005	0,00000E+000	-5,72002E-001	0,00000E+000	8	...........	1407,56
	238	239	-5,76258E-001	-7,35274E-005	0,00000E+000	-5,76000E-001	0,00000E+000	8	...........	1407,56
	240	241	-5,80259E-001	-7,30042E-005	0,00000E+000	-5,79997E-001	0,00000E+000	8	...........	1407,56
	242	243	-5,84258E-001	-7,25088E-005	0,00000E+000	-5,83995E-001	0,00000E+000	8	...........	1407,56
	244	245	-5,88271E-001	-7,20796E-005	0,00000E+000	-5,88005E-001	0,00000E+000	8	...........	1407,56
	246	247	-5,92264E-001	-7,17101E-005	0,00000E+000	-5,92002E-001	0,00000E+000	8	...........	1407,56
	248	249	-5,96286E-001	-7,13641E-005	0,00000E+000	-5,96000E-001	0,00000E+000	8	...........	1407,56
	250	251	-6,00269E-001	-7,10536E-005	0,00000E+000	-5,99997E-001	0,00000E+000	8	...........	1407,56
	252	253	-6,04258E-001	-7,07817E-005	0,00000E+000	-6,03995E-001	0,00000E+000	8	...........	1407,56
	254	255	-6,08282E-001	-7,05299E-005	0,00000E+000	-6,08005E-001	0,00000E+000	8	...........	1407,56
	256	257	-6,12285E-001	-7,03093E-005	0,00000E+000	-6,12002E-001	0,00000E+000	8	...........	1407,56
	258	259	-6,16274E-001	-7,00786E-005	0,00000E+000	-6,16000E-001	0,00000E+000	8	...........	1407,56
	260	261	-6,20272E-001	-6,99091E-005	0,00000E+000	-6,19997E-001	0,00000E+000	8	...........	1407,56
	262	263	-6,24270E-001	-6,97155E-005	0,00000E+000	-6,23995E-001	0,00000E+000	8	...........	1407,56
	264	265	-6,28282E-001	-6,95610E-005	0,00000E+000	-6,28005E-001	0,00000E+000	8	...........	1407,56
	266	267	-6,32265E-001	-6,93850E-005	0,00000E+000	-6,32002E-001	0,00000E+000	8	...........	1407,56
	268	269	-6,36282E-001	-6,92150E-005	0,00000E+000	-6,36000E-001	0,00000E+000	8	...........	1407,56
	270	271	-6,40286E-001	-6,90317E-005	0,00000E+000	-6,39997E-001	0,00000E+000	8	...........	1407,56
	272	273	-6,44285E-001	-6,88437E-005	0,00000E+000	-6,43995E-001	0,00000E+000	8	...........	1407,56
	274	275	-6,48292E-001	-6,86382E-005	0,00000E+000	-6,48005E-001	0,00000E+000	8	...........	1407,56
	276	277	-6,52286E-001	-6,83901E-005	0,00000E+000	-6,52002E-001	0,00000E+000	8	...........	1407,56
	278	279	-6,56291E-001	-6,81129E-005	0,00000E+000	-6,56000E-001	0,00000E+000	8	...........	1407,56
	280	281	-6,60278E-001	-6,77737E-005	0,00000E+000	-6,59997E-001	0,00000E+000	8	...........	1407,56
	282	283	-6,64275E-001	-6,74127E-005	0,00000E+000	-6,63995E-001	0,00000E+000	8	...........	1407,56
	284	285	-6,68292E-001	-6,70262E-005	0,00000E+000	-6,68005E-001	0,00000E+000	8	...........	1407,56
	286	287	-6,72297E-001	-6,66054E-005	0,00000E+000	-6,72002E-001	0,00000E+000	8	...........	1407,56
	288	289	-6,76280E-001	-6,61704E-005	0,00000E+000	-6,76000E-001	0,00000E+000	8	...........	1407,56
	290	291	-6,80293E-001	-6,56989E-005	0,00000E+000	-6,79997E-001	0,00000E+000	8	...........	1407,56
	292	293	-6,84287E-001	-6,52273E-005	0,00000E+000	-6,83995E-001	0,00000E+000	8	...........	1407,56
	294	295	-6,88301E-001	-6,47472E-005	0,00000E+000	-6,88005E-001	0,00000E+000	8	...........	1407,64
	296	297	-6,92302E-001	-6,42760E-005	0,00000E+000	-6,92002E-001	0,00000E+000	8	...........	1407,56
	298	299	-6,96300E-001	-6,37904E-005	0,00000E+000	-6,96000E-001	0,00000E+000	8	...........	1407,56
	300	301	-7,00305E-001	-6,33073E-005	0,00000E+000	-6,99997E-001	0,00000E+000	8	...........	1407,56
	302	303	-7,04289E-001	-6,28337E-005	0,00000E+000	-7,03995E-001	0,00000E+000	8	...........	1407,56
	304	305	-7,08309E-001	-6,23574E-005	0,00000E+000	-7,08005E-001	0,00000E+000	8	...........	1407,56
	306	307	-7,12320E-001	-6,18780E-005	0,00000E+000	-7,12002E-001	0,00000E+000	8	...........	1407,56
	308	309	-7,16296E-001	-6,14066E-005	0,00000E+000	-7,16000E-001	0,00000E+000	8	...........	1407,56
	310	311	-7,20317E-001	-6,09386E-005	0,00000E+000	-7,19997E-001	0,00000E+000	8	...........	1407,56
	312	313	-7,24307E-001	-6,04720E-005	0,00000E+000	-7,23994E-001	0,00000E+000	8	...........	1407,56
	314	315	-7,28312E-001	-6,00114E-005	0,00000E+000	-7,28005E-001	0,00000E+000	8	...........	1407,56
	316	317	-7,32315E-001	-5,95549E-005	0,00000E+000	-7,32002E-001	0,00000E+000	8	...........	1407,56
	318	319	-7,36313E-001	-5,91029E-005	0,00000E+000	-7,36000E-001	0,00000E+000	8	...........	1407,56
	320	321	-7,40316E-001	-5,86568E-005	0,00000E+000	-7,39997E-001	0,00000E+000	8	...........	1407,56
	322	323	-7,44323E-001	-5,82189E-005	0,00000E+000	-7,43995E-001	0,00000E+000	8	...........	1407,56
	324	325	-7,48323E-001	-5,77855E-005	0,00000E+000	-7,48005E-001	0,00000E+000	8	...........	1407,56
	326	327	-7,52328E-001	-5,73576E-005	0,00000E+000	-7,52002E-001	0,00000E+000	8	...........	1407,56
	328	329	-7,56334E-001	-5,69401E-005	0,00000E+000	-7,56000E-001	0,00000E+000	8	...........	1407,56
	330	331	-7,60322E-001	-5,65221E-005	0,00000E+000	-7,59997E-001	0,00000E+000	8	...........	1407,56
	332	333	-7,64325E-001	-5,61130E-005	0,00000E+000	-7,63995E-001	0,00000E+000	8	...........	1407,56
	334	335	-7,68322E-001	-5,57150E-005	0,00000E+000	-7,68005E-001	0,00000E+000	8	...........	1407,56
	336	337	-7,72337E-001	-5,53093E-005	0,00000E+000	-7,72002E-001	0,00000E+000	8	...........	1407,56
	338	339	-7,76330E-001	-5,49112E-005	0,00000E+000	-7,76000E-001	0,00000E+000	8	...........	1407,56
	340	341	-7,80336E-001	-5,45191E-005	0,00000E+000	-7,79997E-001	0,00000E+000	8	...........	1407,56
	342	343	-7,84325E-001	-5,41274E-005	0,00000E+000	-7,83995E-001	0,00000E+000	8	...........	1407,56
	344	345	-7,88347E-001	-5,37413E-005	0,00000E+000	-7,88005E-001	0,00000E+000	8	...........	1407,56
	346	347	-7,92322E-001	-5,33648E-005	0,00000E+000	-7,92002E-001	0,00000E+000	8	...........	1407,56
	348	349	-7,96351E-001	-5,29868E-005	0,00000E+000	-7,96000E-001	0,00000E+000	8	...........	1407,56
	350	351	-8,00338E-001	-5,26112E-005	0,00000E+000	-7,99997E-001	0,00000E+000	8	...........	1407,56
	352	353	-7,96356E-001	-5,19292E-005	0,00000E+000	-7,96000E-001	0,00000E+000	8	...........	1407,56
	354	355	-7,92323E-001	-5,13446E-005	0,00000E+000	-7,92002E-001	0,00000E+000	8	...........	1407,56
	356	357	-7,88347E-001	-5,07926E-005	0,00000E+000	-7,88005E-001	0,00000E+000	8	...........	1407,56
	358	359	-7,84322E-001	-5,02682E-005	0,00000E+000	-7,83995E-001	0,00000E+000	8	...........	1407,56
	360	361	-7,80331E-001	-4,97541E-005	0,00000E+000	-7,79997E-001	0,00000E+000	8	...........	1407,56
	362	363	-7,76338E-001	-4,92664E-005	0,00000E+000	-7,76000E-001	0,00000E+000	8	...........	1407,56
	364	365	-7,72333E-001	-4,87842E-005	0,00000E+000	-7,72002E-001	0,00000E+000	8	...........	1407,56
	366	367	-7,68327E-001	-4,83096E-005	0,00000E+000	-7,68005E-001	0,00000E+000	8	...........	1407,56
	368	369	-7,64327E-001	-4,78370E-005	0,00000E+000	-7,63995E-001	0,00000E+000	8	...........	1407,56
	370	371	-7,60319E-001	-4,73729E-005	0,00000E+000	-7,59997E-001	0,00000E+000	8	...........	1407,56
	372	373	-7,56341E-001	-4,69303E-005	0,00000E+000	-7,56000E-001	0,00000E+000	8	...........	1407,56
	374	375	-7,52327E-001	-4,64762E-005	0,00000E+000	-7,52002E-001	0,00000E+000	8	...........	1407,56
	376	377	-7,48326E-001	-4,60356E-005	0,00000E+000	-7,48005E-001	0,00000E+000	8	...........	1407,56
	378	379	-7,44321E-001	-4,55920E-005	0,00000E+000	-7,43995E-001	0,00000E+000	8	...........	1407,56
	380	381	-7,40320E-001	-4,51553E-005	0,00000E+000	-7,39997E-001	0,00000E+000	8	...........	1407,47
	382	383	-7,36319E-001	-4,47197E-005	0,00000E+000	-7,36000E-001	0,00000E+000	8	...........	1407,56
	384	385	-7,32328E-001	-4,42784E-005	0,00000E+000	-7,32002E-001	0,00000E+000	8	...........	1407,56
	386	387	-7,28326E-001	-4,38438E-005	0,00000E+000	-7,28005E-001	0,00000E+000	8	...........	1407,56
	388	389	-7,24308E-001	-4,34045E-005	0,00000E+000	-7,23994E-001	0,00000E+000	8	...........	1407,56
	390	391	-7,20318E-001	-4,29636E-005	0,00000E+000	-7,19997E-001	0,00000E+000	8	...........	1407,56
	392	393	-7,16298E-001	-4,25168E-005	0,00000E+000	-7,16000E-001	0,00000E+000	8	...........	1407,56
	394	395	-7,12311E-001	-4,20609E-005	0,00000E+000	-7,12002E-001	0,00000E+000	8	...........	1407,56
	396	397	-7,08305E-001	-4,16076E-005	0,00000E+000	-7,08005E-001	0,00000E+000	8	...........	1407,56
	398	399	-7,04285E-001	-4,11400E-005	0,00000E+000	-7,03995E-001	0,00000E+000	8	...........	1407,56
	400	401	-7,00299E-001	-4,06676E-005	0,00000E+000	-6,99997E-001	0,00000E+000	8	...........	1407,56
	402	403	-6,96303E-001	-4,01734E-005	0,00000E+000	-6,96000E-001	0,00000E+000	8	...........	1407,56
	404	405	-6,92313E-001	-3,97726E-005	0,00000E+000	-6,92002E-001	0,00000E+000	8	...........	1407,56
	406	407	-6,88308E-001	-3,92368E-005	0,00000E+000	-6,88005E-001	0,00000E+000	8	...........	1407,56
	408	409	-6,84293E-001	-3,86988E-005	0,00000E+000	-6,83995E-001	0,00000E+000	8	...........	1407,56
	410	411	-6,80294E-001	-3,81565E-005	0,00000E+000	-6,79997E-001	0,00000E+000	8	...........	1407,56
	412	413	-6,76296E-001	-3,75786E-005	0,00000E+000	-6,76000E-001	0,00000E+000	8	...........	1407,56
	414	415	-6,72298E-001	-3,69731E-005	0,00000E+000	-6,72002E-001	0,00000E+000	8	...........	1407,56
	416	417	-6,68298E-001	-3,63557E-005	0,00000E+000	-6,68005E-001	0,00000E+000	8	...........	1407,56
	418	419	-6,64269E-001	-3,57331E-005	0,00000E+000	-6,63995E-001	0,00000E+000	8	...........	1407,56
	420	421	-6,60288E-001	-3,50210E-005	0,00000E+000	-6,59997E-001	0,00000E+000	8	...........	1407,56
	422	423	-6,56280E-001	-3,42794E-005	0,00000E+000	-6,56000E-001	0,00000E+000	8	...........	1407,56
	424	425	-6,52293E-001	-3,35761E-005	0,00000E+000	-6,52002E-001	0,00000E+000	8	...........	1407,56
	426	427	-6,48296E-001	-3,28433E-005	0,00000E+000	-6,48005E-001	0,00000E+000	8	...........	1407,56
	428	429	-6,44284E-001	-3,20801E-005	0,00000E+000	-6,43995E-001	0,00000E+000	8	...........	1407,56
	430	431	-6,40288E-001	-3,13368E-005	0,00000E+000	-6,39997E-001	0,00000E+000	8	...........	1407,56
	432	433	-6,36275E-001	-3,06079E-005	0,00000E+000	-6,36000E-001	0,00000E+000	8	...........	1407,56
	434	435	-6,32272E-001	-2,99014E-005	0,00000E+000	-6,32002E-001	0,00000E+000	8	...........	1407,56
	436	437	-6,28284E-001	-2,92198E-005	0,00000E+000	-6,28005E-001	0,00000E+000	8	...........	1407,56
	438	439	-6,24267E-001	-2,85506E-005	0,00000E+000	-6,23995E-001	0,00000E+000	8	...........	1407,56
	440	441	-6,20276E-001	-2,78580E-005	0,00000E+000	-6,19997E-001	0,00000E+000	8	...........	1407,56
	442	443	-6,16275E-001	-2,71898E-005	0,00000E+000	-6,16000E-001	0,00000E+000	8	...........	1407,56
	444	445	-6,12278E-001	-2,65599E-005	0,00000E+000	-6,12002E-001	0,00000E+000	8	...........	1407,56
	446	447	-6,08278E-001	-2,59164E-005	0,00000E+000	-6,08005E-001	0,00000E+000	8	...........	1407,56
	448	449	-6,04274E-001	-2,52537E-005	0,00000E+000	-6,03995E-001	0,00000E+000	8	...........	1407,56
	450	451	-6,00265E-001	-2,46056E-005	0,00000E+000	-5,99997E-001	0,00000E+000	8	...........	1407,56
	452	453	-5,96287E-001	-2,39211E-005	0,00000E+000	-5,96000E-001	0,00000E+000	8	...........	1407,56
	454	455	-5,92275E-001	-2,32356E-005	0,00000E+000	-5,92002E-001	0,00000E+000	8	...........	1407,56
	456	457	-5,88263E-001	-2,24656E-005	0,00000E+000	-5,88005E-001	0,00000E+000	8	...........	1407,56
	458	459	-5,84259E-001	-2,16402E-005	0,00000E+000	-5,83995E-001	0,00000E+000	8	...........	1407,56
	460	461	-5,80264E-001	-2,07396E-005	0,00000E+000	-5,79997E-001	0,00000E+000	8	...........	1407,56
	462	463	-5,76262E-001	-1,97662E-005	0,00000E+000	-5,76000E-001	0,00000E+000	8	...........	1407,56
	464	465	-5,72272E-001	-1,86827E-005	0,00000E+000	-5,72002E-001	0,00000E+000	8	...........	1407,56
	466	467	-5,68270E-001	-1,74796E-005	0,00000E+000	-5,68005E-001	0,00000E+000	8	...........	1407,56
	468	469	-5,64272E-001	-1,60828E-005	0,00000E+000	-5,63995E-001	0,00000E+000	8	...........	1407,56
	470	471	-5,60248E-001	-1,45717E-005	0,00000E+000	-5,59997E-001	0,00000E+000	8	...........	1407,56
	472	473	-5,56261E-001	-1,27905E-005	0,00000E+000	-5,56000E-001	0,00000E+000	8	...........	1407,56
	474	475	-5,52265E-001	-1,08255E-005	0,00000E+000	-5,52002E-001	0,00000E+000	8	...........	1407,56
	476	477	-5,48256E-001	-8,60496E-006	0,00000E+000	-5,48005E-001	0,00000E+000	8	...........	1407,56
	478	479	-5,44251E-001	-6,11725E-006	0,00000E+000	-5,43995E-001	0,00000E+000	7	...........	1407,56
	480	481	-5,40256E-001	-3,36629E-006	0,00000E+000	-5,39997E-001	0,00000E+000	7	...........	1407,56
	482	483	-5,36250E-001	-3,40423E-007	0,00000E+000	-5,36000E-001	0,00000E+000	7	...........	1407,56
	484	485	-5,32259E-001	2,84713E-006	0,00000E+000	-5,32002E-001	0,00000E+000	7	...........	1407,29
	486	487	-5,28256E-001	6,23428E-006	0,00000E+000	-5,28005E-001	0,00000E+000	7	...........	1407,56
	488	489	-5,24249E-001	9,81970E-006	0,00000E+000	-5,23995E-001	0,00000E+000	7	...........	1407,12
	490	491	-5,20246E-001	1,34360E-005	0,00000E+000	-5,19997E-001	0,00000E+000	8	...........	1407,47
	492	493	-5,16242E-001	1,70489E-005	0,00000E+000	-5,16000E-001	0,00000E+000	8	...........	1407,56
	494	495	-5,12241E-001	2,06025E-005	0,00000E+000	-5,12002E-001	0,00000E+000	8	...........	1407,56
	496	497	-5,08242E-001	2,39742E-005	0,00000E+000	-5,08005E-001	0,00000E+000	8	...........	1407,56
	498	499	-5,04237E-001	2,72226E-005	0,00000E+000	-5,03995E-001	0,00000E+000	8	...........	1407,56
	500	501	-5,00243E-001	3,01271E-005	0,00000E+000	-4,99997E-001	0,00000E+000	8	...........	1407,56
	502	503	-4,96231E-001	3,28090E-005	0,00000E+000	-4,96000E-001	0,00000E+000	8	...........	1407,56
	504	505	-4,92238E-001	3,51363E-005	0,00000E+000	-4,92002E-001	0,00000E+000	8	...........	1407,56
	506	507	-4,88236E-001	3,71489E-005	0,00000E+000	-4,88005E-001	0,00000E+000	8	...........	1407,56
	508	509	-4,84215E-001	3,88841E-005	0,00000E+000	-4,83995E-001	0,00000E+000	8	...........	1407,56
	510	511	-4,80231E-001	4,02966E-005	0,00000E+000	-4,79997E-001	0,00000E+000	8	...........	1407,56
	512	513	-4,76227E-001	4,14280E-005	0,00000E+000	-4,76000E-001	0,00000E+000	8	...........	1407,56
	514	515	-4,72242E-001	4,23240E-005	0,00000E+000	-4,72002E-001	0,00000E+000	8	...........	1407,56
	516	517	-4,68230E-001	4,29214E-005	0,00000E+000	-4,68005E-001	0,00000E+000	8	...........	1407,56
	518	519	-4,64223E-001	4,34062E-005	0,00000E+000	-4,63995E-001	0,00000E+000	8	...........	1407,56
	520	521	-4,60214E-001	4,36510E-005	0,00000E+000	-4,59997E-001	0,00000E+000	8	...........	1407,56
	522	523	-4,56224E-001	4,37043E-005	0,00000E+000	-4,56000E-001	0,00000E+000	8	...........	1407,56
	524	525	-4,52222E-001	4,35887E-005	0,00000E+000	-4,52002E-001	0,00000E+000	8	...........	1407,56
	526	527	-4,48215E-001	4,33499E-005	0,00000E+000	-4,48005E-001	0,00000E+000	8	...........	1407,56
	528	529	-4,44216E-001	4,30427E-005	0,00000E+000	-4,43995E-001	0,00000E+000	8	...........	1407,56
	530	531	-4,40211E-001	4,25884E-005	0,00000E+000	-4,39997E-001	0,00000E+000	8	...........	1407,56
	532	533	-4,36224E-001	4,20226E-005	0,00000E+000	-4,36000E-001	0,00000E+000	8	...........	1407,64
	534	535	-4,32206E-001	4,14201E-005	0,00000E+000	-4,32002E-001	0,00000E+000	8	...........	1407,56
	536	537	-4,28215E-001	4,07435E-005	0,00000E+000	-4,28005E-001	0,00000E+000	8	...........	1407,56
	538	539	-4,24204E-001	4,00111E-005	0,00000E+000	-4,23995E-001	0,00000E+000	8	...........	1407,56
	540	541	-4,20207E-001	3,92365E-005	0,00000E+000	-4,19997E-001	0,00000E+000	8	...........	1407,56
	542	543	-4,16203E-001	3,84094E-005	0,00000E+000	-4,16000E-001	0,00000E+000	8	...........	1407,56
	544	545	-4,12218E-001	3,75916E-005	0,00000E+000	-4,12002E-001	0,00000E+000	8	...........	1407,56
	546	547	-4,08202E-001	3,67420E-005	0,00000E+000	-4,08005E-001	0,00000E+000	8	...........	1407,56
	548	549	-4,04180E-001	3,58868E-005	0,00000E+000	-4,03995E-001	0,00000E+000	8	...........	1407,56
	550	551	-4,00190E-001	3,50323E-005	0,00000E+000	-3,99997E-001	0,00000E+000	8	...........	1407,56
	552	553	-3,96181E-001	3,41842E-005	0,00000E+000	-3,96000E-001	0,00000E+000	8	...........	1407,56
	554	555	-3,92189E-001	3,33597E-005	0,00000E+000	-3,92002E-001	0,00000E+000	8	...........	1407,56
	556	557	-3,88196E-001	3,25377E-005	0,00000E+000	-3,88005E-001	0,00000E+000	8	...........	1407,56
	558	559	-3,84180E-001	3,17421E-005	0,00000E+000	-3,83995E-001	0,00000E+000	8	...........	1407,56
	560	561	-3,80169E-001	3,09640E-005	0,00000E+000	-3,79997E-001	0,00000E+000	8	...........	1407,56
	562	563	-3,76186E-001	3,02165E-005	0,00000E+000	-3,76000E-001	0,00000E+000	8	...........	1407,56
	564	565	-3,72180E-001	2,94838E-005	0,00000E+000	-3,72002E-001	0,00000E+000	8	...........	1407,56
	566	567	-3,68179E-001	2,87842E-005	0,00000E+000	-3,68005E-001	0,00000E+000	8	...........	1407,56
	568	569	-3,64174E-001	2,81074E-005	0,00000E+000	-3,63995E-001	0,00000E+000	8	...........	1407,56
	570	571	-3,60184E-001	2,74575E-005	0,00000E+000	-3,59997E-001	0,00000E+000	8	...........	1407,56
	572	573	-3,56166E-001	2,68314E-005	0,00000E+000	-3,56000E-001	0,00000E+000	8	...........	1407,56
	574	575	-3,52178E-001	2,62349E-005	0,00000E+000	-3,52002E-001	0,00000E+000	8	...........	1407,56
	576	577	-3,48179E-001	2,56614E-005	0,00000E+000	-3,48005E-001	0,00000E+000	8	...........	1407,56
	578	579	-3,44152E-001	2,51145E-005	0,00000E+000	-3,43995E-001	0,00000E+000	8	...........	1407,56
	580	581	-3,40166E-001	2,45880E-005	0,00000E+000	-3,39997E-001	0,00000E+000	8	...........	1407,56
	582	583	-3,36166E-001	2,40843E-005	0,00000E+000	-3,36000E-001	0,00000E+000	8	...........	1407,56
	584	585	-3,32158E-001	2,35990E-005	0,00000E+000	-3,32002E-001	0,00000E+000	8	...........	1407,56
	586	587	-3,28165E-001	2,31349E-005	0,00000E+000	-3,28005E-001	0,00000E+000	8	...........	1407,56
	588	589	-3,24157E-001	2,26887E-005	0,00000E+000	-3,23995E-001	0,00000E+000	8	...........	1407,56
	590	591	-3,20148E-001	2,22664E-005	0,00000E+000	-3,19997E-001	0,00000E+000	8	...........	1407,56
	592	593	-3,16157E-001	2,18576E-005	0,00000E+000	-3,16000E-001	0,00000E+000	8	...........	1407,56
	594	595	-3,12157E-001	2,14664E-005	0,00000E+000	-3,12002E-001	0,00000E+000	8	...........	1407,56
	596	597	-3,08173E-001	2,10901E-005	0,00000E+000	-3,08005E-001	0,00000E+000	8	...........	1407,56
	598	599	-3,04139E-001	2,07309E-005	0,00000E+000	-3,03995E-001	0,00000E+000	8	...........	1407,56
	600	601	-3,00140E-001	2,03821E-005	0,00000E+000	-2,99997E-001	0,00000E+000	8	...........	1407,56
	602	603	-2,96145E-001	2,00497E-005	0,00000E+000	-2,96000E-001	0,00000E+000	8	...........	1407,56
	604	605	-2,92145E-001	1,97315E-005	0,00000E+000	-2,92002E-001	0,00000E+000	8	...........	1407,56
	606	607	-2,88144E-001	1,94199E-005	0,00000E+000	-2,88005E-001	0,00000E+000	8	...........	1407,56
	608	609	-2,84135E-001	1,91262E-005	0,00000E+000	-2,83995E-001	0,00000E+000	8	...........	1407,56
	610	611	-2,80127E-001	1,88397E-005	0,00000E+000	-2,79997E-001	0,00000E+000	8	...........	1407,56
	612	613	-2,76145E-001	1,85684E-005	0,00000E+000	-2,76000E-001	0,00000E+000	8	...........	1407,56
	614	615	-2,72133E-001	1,83013E-005	0,00000E+000	-2,72002E-001	0,00000E+000	8	...........	1407,56
	616	617	-2,68128E-001	1,80457E-005	0,00000E+000	-2,68005E-001	0,00000E+000	8	...........	1407,56
	618	619	-2,64132E-001	1,78015E-005	0,00000E+000	-2,63995E-001	0,00000E+000	8	...........	1407,56
	620	621	-2,60119E-001	1,75649E-005	0,00000E+000	-2,59997E-001	0,00000E+000	8	...........	1407,56
	622	623	-2,56135E-001	1,73350E-005	0,00000E+000	-2,56000E-001	0,00000E+000	8	...........	1407,56
	624	625	-2,52129E-001	1,71147E-005	0,00000E+000	-2,52002E-001	0,00000E+000	8	...........	1407,56
	626	627	-2,48125E-001	1,69018E-005	0,00000E+000	-2,48005E-001	0,00000E+000	8	...........	1407,56
	628	629	-2,44127E-001	1,66982E-005	0,00000E+000	-2,43995E-001	0,00000E+000	8	...........	1407,56
	630	631	-2,40126E-001	1,64999E-005	0,00000E+000	-2,39997E-001	0,00000E+000	8	...........	1407,56
	632	633	-2,36112E-001	1,63075E-005	0,00000E+000	-2,36000E-001	0,00000E+000	8	...........	1407,56
	634	635	-2,32131E-001	1,61214E-005	0,00000E+000	-2,32002E-001	0,00000E+000	8	...........	1407,56
	636	637	-2,28116E-001	1,59456E-005	0,00000E+000	-2,28005E-001	0,00000E+000	8	...........	1407,56
	638	639	-2,24108E-001	1,57716E-005	0,00000E+000	-2,23995E-001	0,00000E+000	8	...........	1407,56
	640	641	-2,20119E-001	1,56072E-005	0,00000E+000	-2,19997E-001	0,00000E+000	8	...........	1407,56
	642	643	-2,16098E-001	1,54456E-005	0,00000E+000	-2,16000E-001	0,00000E+000	8	...........	1407,56
	644	645	-2,12122E-001	1,52914E-005	0,00000E+000	-2,12002E-001	0,00000E+000	8	...........	1407,56
	646	647	-2,08107E-001	1,51413E-005	0,00000E+000	-2,08005E-001	0,00000E+000	8	...........	1407,56
	648	649	-2,04107E-001	1,50007E-005	0,00000E+000	-2,03995E-001	0,00000E+000	8	...........	1407,56
	650	651	-2,00099E-001	1,48609E-005	0,00000E+000	-1,99997E-001	0,00000E+000	8	...........	1407,56
	652	653	-1,96107E-001	1,47237E-005	0,00000E+000	-1,96000E-001	0,00000E+000	8	...........	1407,56
	654	655	-1,92088E-001	1,45915E-005	0,00000E+000	-1,92002E-001	0,00000E+000	8	...........	1407,56
	656	657	-1,88103E-001	1,44658E-005	0,00000E+000	-1,88005E-001	0,00000E+000	8	...........	1407,56
	658	659	-1,84086E-001	1,43442E-005	0,00000E+000	-1,83995E-001	0,00000E+000	8	...........	1407,56
	660	661	-1,80103E-001	1,42226E-005	0,00000E+000	-1,79997E-001	0,00000E+000	8	...........	1407,56
	662	663	-1,76089E-001	1,41123E-005	0,00000E+000	-1,76000E-001	0,00000E+000	8	...........	1407,56
	664	665	-1,72086E-001	1,40025E-005	0,00000E+000	-1,72002E-001	0,00000E+000	8	...........	1407,56
	666	667	-1,68101E-001	1,38986E-005	0,00000E+000	-1,68005E-001	0,00000E+000	8	...........	1407,56
	668	669	-1,64076E-001	1,37924E-005	0,00000E+000	-1,63995E-001	0,00000E+000	8	...........	1407,56
	670	671	-1,60087E-001	1,36931E-005	0,00000E+000	-1,59997E-001	0,00000E+000	8	...........	1407,56
	672	673	-1,56074E-001	1,35946E-005	0,00000E+000	-1,56000E-001	0,00000E+000	8	...........	1407,56
	674	675	-1,52092E-001	1,34996E-005	0,00000E+000	-1,52002E-001	0,00000E+000	8	...........	1407,56
	676	677	-1,48085E-001	1,34084E-005	0,00000E+000	-1,48005E-001	0,00000E+000	8	...........	1407,56
	678	679	-1,44078E-001	1,33201E-005	0,00000E+000	-1,43995E-001	0,00000E+000	8	...........	1407,56
	680	681	-1,40066E-001	1,32353E-005	0,00000E+000	-1,39997E-001	0,00000E+000	8	...........	1407,56
	682	683	-1,36070E-001	1,31540E-005	0,00000E+000	-1,36000E-001	0,00000E+000	8	...........	1407,56
	684	685	-1,32078E-001	1,30794E-005	0,00000E+000	-1,32002E-001	0,00000E+000	8	...........	1407,56
	686	687	-1,28073E-001	1,30045E-005	0,00000E+000	-1,28005E-001	0,00000E+000	8	...........	1407,56
	688	689	-1,24061E-001	1,29277E-005	0,00000E+000	-1,23995E-001	0,00000E+000	8	...........	1407,56
	690	691	-1,20061E-001	1,28570E-005	0,00000E+000	-1,19997E-001	0,00000E+000	8	...........	1407,56
	692	693	-1,16060E-001	1,27888E-005	0,00000E+000	-1,16000E-001	0,00000E+000	8	...........	1407,56
	694	695	-1,12058E-001	1,27218E-005	0,00000E+000	-1,12002E-001	0,00000E+000	8	...........	1407,56
	696	697	-1,08059E-001	1,26588E-005	0,00000E+000	-1,08005E-001	0,00000E+000	8	...........	1407,56
	698	699	-1,04066E-001	1,25963E-005	0,00000E+000	-1,03995E-001	0,00000E+000	8	...........	1407,56
	700	701	-1,00039E-001	1,25338E-005	0,00000E+000	-9,99971E-002	0,00000E+000	8	...........	1407,56
CURVE2	TABLE
	Pt	T	Vf	Im	Vu	Sig	Ach	IERange	Over	Temp
	#	s	V vs. Ref.	A	V	V	V	#	bits	deg C
	701	702	-1,02050E-001	1,24243E-005	0,00000E+000	-1,01996E-001	0,00000E+000	8	...........	1407,56
	703	704	-1,06071E-001	1,22387E-005	0,00000E+000	-1,06006E-001	0,00000E+000	8	...........	1407,56
	705	706	-1,10073E-001	1,20794E-005	0,00000E+000	-1,10003E-001	0,00000E+000	8	...........	1407,56
	707	708	-1,14055E-001	1,19311E-005	0,00000E+000	-1,14001E-001	0,00000E+000	8	...........	1407,56
	709	710	-1,18057E-001	1,17961E-005	0,00000E+000	-1,17998E-001	0,00000E+000	8	...........	1407,56
	711	712	-1,22059E-001	1,16680E-005	0,00000E+000	-1,21996E-001	0,00000E+000	8	...........	1407,56
	713	714	-1,26082E-001	1,15459E-005	0,00000E+000	-1,26006E-001	0,00000E+000	8	...........	1407,56
	715	716	-1,30076E-001	1,14274E-005	0,00000E+000	-1,30003E-001	0,00000E+000	8	...........	1407,56
	717	718	-1,34080E-001	1,13132E-005	0,00000E+000	-1,34001E-001	0,00000E+000	8	...........	1407,56
	719	720	-1,38071E-001	1,11986E-005	0,00000E+000	-1,37998E-001	0,00000E+000	8	...........	1407,56
	721	722	-1,42077E-001	1,10904E-005	0,00000E+000	-1,41996E-001	0,00000E+000	8	...........	1407,56
	723	724	-1,46087E-001	1,09822E-005	0,00000E+000	-1,46006E-001	0,00000E+000	8	...........	1407,56
	725	726	-1,50086E-001	1,08762E-005	0,00000E+000	-1,50003E-001	0,00000E+000	8	...........	1407,56
	727	728	-1,54090E-001	1,07722E-005	0,00000E+000	-1,54001E-001	0,00000E+000	8	...........	1407,56
	729	730	-1,58093E-001	1,06668E-005	0,00000E+000	-1,57998E-001	0,00000E+000	8	...........	1407,56
	731	732	-1,62087E-001	1,05646E-005	0,00000E+000	-1,61996E-001	0,00000E+000	8	...........	1407,56
	733	734	-1,66096E-001	1,04643E-005	0,00000E+000	-1,66006E-001	0,00000E+000	8	...........	1407,56
[...]
	1709	1710	-7,18322E-001	-5,55897E-005	0,00000E+000	-7,17998E-001	0,00000E+000	8	...........	1407,56
	1711	1712	-7,22308E-001	-5,50838E-005	0,00000E+000	-7,21996E-001	0,00000E+000	8	...........	1407,56
	1713	1714	-7,26315E-001	-5,45905E-005	0,00000E+000	-7,26006E-001	0,00000E+000	8	...........	1407,56
	1715	1716	-7,30317E-001	-5,41038E-005	0,00000E+000	-7,30003E-001	0,00000E+000	8	...........	1407,56
	1717	1718	-7,34316E-001	-5,36242E-005	0,00000E+000	-7,34001E-001	0,00000E+000	8	...........	1407,56
	1719	1720	-7,38328E-001	-5,31641E-005	0,00000E+000	-7,37998E-001	0,00000E+000	8	...........	1407,56
	1721	1722	-7,42302E-001	-5,27147E-005	0,00000E+000	-7,41996E-001	0,00000E+000	8	...........	1407,56
	1723	1724	-7,46330E-001	-5,22773E-005	0,00000E+000	-7,46006E-001	0,00000E+000	8	...........	1407,56
	1725	1726	-7,50328E-001	-5,18478E-005	0,00000E+000	-7,50003E-001	0,00000E+000	8	...........	1407,56
	1727	1728	-7,54320E-001	-5,14343E-005	0,00000E+000	-7,54001E-001	0,00000E+000	8	...........	1407,56
	1729	1730	-7,58333E-001	-5,10284E-005	0,00000E+000	-7,57998E-001	0,00000E+000	8	...........	1407,56
	1731	1732	-7,62336E-001	-5,06309E-005	0,00000E+000	-7,61996E-001	0,00000E+000	8	...........	1407,56
	1733	1734	-7,66329E-001	-5,02458E-005	0,00000E+000	-7,66006E-001	0,00000E+000	8	...........	1407,56
	1735	1736	-7,70333E-001	-4,98647E-005	0,00000E+000	-7,70003E-001	0,00000E+000	8	...........	1407,56
	1737	1738	-7,74327E-001	-4,95067E-005	0,00000E+000	-7,74001E-001	0,00000E+000	8	...........	1407,56
	1739	1740	-7,78333E-001	-4,91529E-005	0,00000E+000	-7,77998E-001	0,00000E+000	8	...........	1407,56
	1741	1742	-7,82342E-001	-4,87903E-005	0,00000E+000	-7,81996E-001	0,00000E+000	8	...........	1407,56
	1743	1744	-7,86339E-001	-4,84407E-005	0,00000E+000	-7,86006E-001	0,00000E+000	8	...........	1407,56
	1745	1746	-7,90341E-001	-4,81037E-005	0,00000E+000	-7,90003E-001	0,00000E+000	8	...........	1407,56
	1747	1748	-7,94339E-001	-4,77686E-005	0,00000E+000	-7,94001E-001	0,00000E+000	8	...........	1407,56
	1749	1750	-7,98337E-001	-4,74456E-005	0,00000E+000	-7,97998E-001	0,00000E+000	8	...........	1407,56
	1751	1752	-7,98345E-001	-4,69613E-005	0,00000E+000	-7,97998E-001	0,00000E+000	8	...........	1407,56
	1753	1754	-7,94348E-001	-4,64308E-005	0,00000E+000	-7,94001E-001	0,00000E+000	8	...........	1407,56
	1755	1756	-7,90335E-001	-4,59534E-005	0,00000E+000	-7,90003E-001	0,00000E+000	8	...........	1407,56
	1757	1758	-7,86343E-001	-4,55018E-005	0,00000E+000	-7,86006E-001	0,00000E+000	8	...........	1407,56
	1759	1760	-7,82345E-001	-4,50764E-005	0,00000E+000	-7,81996E-001	0,00000E+000	8	...........	1407,56
	1761	1762	-7,78340E-001	-4,46637E-005	0,00000E+000	-7,77998E-001	0,00000E+000	8	...........	1407,56
	1763	1764	-7,74329E-001	-4,42638E-005	0,00000E+000	-7,74001E-001	0,00000E+000	8	...........	1407,56
	1765	1766	-7,70333E-001	-4,38767E-005	0,00000E+000	-7,70003E-001	0,00000E+000	8	...........	1407,56
	1767	1768	-7,66323E-001	-4,35028E-005	0,00000E+000	-7,66006E-001	0,00000E+000	8	...........	1407,56
	1769	1770	-7,62332E-001	-4,31383E-005	0,00000E+000	-7,61996E-001	0,00000E+000	8	...........	1407,56
	1771	1772	-7,58334E-001	-4,27829E-005	0,00000E+000	-7,57998E-001	0,00000E+000	8	...........	1407,56
	1773	1774	-7,54312E-001	-4,24352E-005	0,00000E+000	-7,54001E-001	0,00000E+000	8	...........	1407,47
	1775	1776	-7,50330E-001	-4,20932E-005	0,00000E+000	-7,50003E-001	0,00000E+000	8	...........	1407,56
	1777	1778	-7,46328E-001	-4,17546E-005	0,00000E+000	-7,46006E-001	0,00000E+000	8	...........	1407,56
	1779	1780	-7,42309E-001	-4,14207E-005	0,00000E+000	-7,41996E-001	0,00000E+000	8	...........	1407,47
	1781	1782	-7,38324E-001	-4,10912E-005	0,00000E+000	-7,37998E-001	0,00000E+000	8	...........	1407,56
	1783	1784	-7,34315E-001	-4,07598E-005	0,00000E+000	-7,34001E-001	0,00000E+000	8	...........	1407,47
	1785	1786	-7,30327E-001	-4,04345E-005	0,00000E+000	-7,30003E-001	0,00000E+000	8	...........	1407,47
	1787	1788	-7,26319E-001	-4,01038E-005	0,00000E+000	-7,26006E-001	0,00000E+000	8	...........	1407,56
	1789	1790	-7,22296E-001	-3,97690E-005	0,00000E+000	-7,21996E-001	0,00000E+000	8	...........	1407,56
	1791	1792	-7,18329E-001	-3,94282E-005	0,00000E+000	-7,17998E-001	0,00000E+000	8	...........	1407,56
	1793	1794	-7,14297E-001	-3,90831E-005	0,00000E+000	-7,14001E-001	0,00000E+000	8	...........	1407,56
	1795	1796	-7,10311E-001	-3,87284E-005	0,00000E+000	-7,10003E-001	0,00000E+000	8	...........	1407,56
	1797	1798	-7,06318E-001	-3,83665E-005	0,00000E+000	-7,06006E-001	0,00000E+000	8	...........	1407,56
	1799	1800	-7,02291E-001	-3,79875E-005	0,00000E+000	-7,01996E-001	0,00000E+000	8	...........	1407,56
	1801	1802	-6,98307E-001	-3,75956E-005	0,00000E+000	-6,97998E-001	0,00000E+000	8	...........	1407,56
	1803	1804	-6,94306E-001	-3,71939E-005	0,00000E+000	-6,94001E-001	0,00000E+000	8	...........	1407,56
	1805	1806	-6,90283E-001	-3,67765E-005	0,00000E+000	-6,90003E-001	0,00000E+000	8	...........	1407,56
	1807	1808	-6,86304E-001	-3,63318E-005	0,00000E+000	-6,86006E-001	0,00000E+000	8	...........	1407,56
	1809	1810	-6,82286E-001	-3,58639E-005	0,00000E+000	-6,81996E-001	0,00000E+000	8	...........	1407,56
	1811	1812	-6,78291E-001	-3,53841E-005	0,00000E+000	-6,77998E-001	0,00000E+000	8	...........	1407,56
	1813	1814	-6,74291E-001	-3,48676E-005	0,00000E+000	-6,74001E-001	0,00000E+000	8	...........	1407,56
	1815	1816	-6,70301E-001	-3,43256E-005	0,00000E+000	-6,70003E-001	0,00000E+000	8	...........	1407,56
	1817	1818	-6,66299E-001	-3,37616E-005	0,00000E+000	-6,66006E-001	0,00000E+000	8	...........	1407,47
	1819	1820	-6,62285E-001	-3,31460E-005	0,00000E+000	-6,61996E-001	0,00000E+000	8	...........	1407,47
	1821	1822	-6,58280E-001	-3,25050E-005	0,00000E+000	-6,57998E-001	0,00000E+000	8	...........	1407,56
	1823	1824	-6,54301E-001	-3,18394E-005	0,00000E+000	-6,54001E-001	0,00000E+000	8	...........	1407,56
	1825	1826	-6,50293E-001	-3,11412E-005	0,00000E+000	-6,50003E-001	0,00000E+000	8	...........	1407,56
	1827	1828	-6,46288E-001	-3,04407E-005	0,00000E+000	-6,46006E-001	0,00000E+000	8	...........	1407,56
	1829	1830	-6,42291E-001	-2,97253E-005	0,00000E+000	-6,41996E-001	0,00000E+000	8	...........	1407,56
	1831	1832	-6,38278E-001	-2,90177E-005	0,00000E+000	-6,37998E-001	0,00000E+000	8	...........	1407,56
	1833	1834	-6,34282E-001	-2,83174E-005	0,00000E+000	-6,34001E-001	0,00000E+000	8	...........	1407,56
	1835	1836	-6,30286E-001	-2,76299E-005	0,00000E+000	-6,30003E-001	0,00000E+000	8	...........	1407,56
	1837	1838	-6,26287E-001	-2,69650E-005	0,00000E+000	-6,26006E-001	0,00000E+000	8	...........	1407,56
	1839	1840	-6,22270E-001	-2,63349E-005	0,00000E+000	-6,21996E-001	0,00000E+000	8	...........	1407,56
	1841	1842	-6,18278E-001	-2,56725E-005	0,00000E+000	-6,17998E-001	0,00000E+000	8	...........	1407,56
	1843	1844	-6,14282E-001	-2,50585E-005	0,00000E+000	-6,14001E-001	0,00000E+000	8	...........	1407,56
	1845	1846	-6,10276E-001	-2,44123E-005	0,00000E+000	-6,10003E-001	0,00000E+000	8	...........	1407,56
	1847	1848	-6,06281E-001	-2,37959E-005	0,00000E+000	-6,06006E-001	0,00000E+000	8	...........	1407,56
	1849	1850	-6,02273E-001	-2,31596E-005	0,00000E+000	-6,01996E-001	0,00000E+000	8	...........	1407,56
	1851	1852	-5,98267E-001	-2,25282E-005	0,00000E+000	-5,97998E-001	0,00000E+000	8	...........	1407,56
	1853	1854	-5,94281E-001	-2,18442E-005	0,00000E+000	-5,94001E-001	0,00000E+000	8	...........	1407,56
	1855	1856	-5,90275E-001	-2,11389E-005	0,00000E+000	-5,90003E-001	0,00000E+000	8	...........	1407,56
	1857	1858	-5,86260E-001	-2,03742E-005	0,00000E+000	-5,86006E-001	0,00000E+000	8	...........	1407,56
	1859	1860	-5,82268E-001	-1,95183E-005	0,00000E+000	-5,81996E-001	0,00000E+000	8	...........	1407,56
	1861	1862	-5,78270E-001	-1,86183E-005	0,00000E+000	-5,77998E-001	0,00000E+000	8	...........	1407,56
	1863	1864	-5,74263E-001	-1,75969E-005	0,00000E+000	-5,74001E-001	0,00000E+000	8	...........	1407,56
	1865	1866	-5,70263E-001	-1,64770E-005	0,00000E+000	-5,70003E-001	0,00000E+000	8	...........	1407,56
	1867	1868	-5,66280E-001	-1,51957E-005	0,00000E+000	-5,66006E-001	0,00000E+000	8	...........	1407,56
	1869	1870	-5,62256E-001	-1,37479E-005	0,00000E+000	-5,61996E-001	0,00000E+000	8	...........	1407,56
	1871	1872	-5,58268E-001	-1,21390E-005	0,00000E+000	-5,57998E-001	0,00000E+000	8	...........	1407,56
	1873	1874	-5,54277E-001	-1,02737E-005	0,00000E+000	-5,54001E-001	0,00000E+000	8	...........	1407,56
	1875	1876	-5,50263E-001	-8,19177E-006	0,00000E+000	-5,50003E-001	0,00000E+000	8	...........	1407,56
	1877	1878	-5,46267E-001	-5,82280E-006	0,00000E+000	-5,46006E-001	0,00000E+000	7	...........	1407,47
	1879	1880	-5,42257E-001	-3,18151E-006	0,00000E+000	-5,41996E-001	0,00000E+000	7	...........	1407,56
	1881	1882	-5,38271E-001	-3,21979E-007	0,00000E+000	-5,37998E-001	0,00000E+000	7	...........	1407,56
	1883	1884	-5,34258E-001	2,84262E-006	0,00000E+000	-5,34001E-001	0,00000E+000	7	...........	1407,29
	1885	1886	-5,30256E-001	6,15219E-006	0,00000E+000	-5,30003E-001	0,00000E+000	7	...........	1407,56
	1887	1888	-5,26279E-001	9,69395E-006	0,00000E+000	-5,26006E-001	0,00000E+000	7	...........	1407,21
	1889	1890	-5,22240E-001	1,33369E-005	0,00000E+000	-5,21996E-001	0,00000E+000	8	...........	1407,47
	1891	1892	-5,18245E-001	1,69475E-005	0,00000E+000	-5,17998E-001	0,00000E+000	8	...........	1407,56
	1893	1894	-5,14261E-001	2,05402E-005	0,00000E+000	-5,14001E-001	0,00000E+000	8	...........	1407,56
	1895	1896	-5,10242E-001	2,40918E-005	0,00000E+000	-5,10003E-001	0,00000E+000	8	...........	1407,56
	1897	1898	-5,06257E-001	2,73617E-005	0,00000E+000	-5,06006E-001	0,00000E+000	8	...........	1407,56
	1899	1900	-5,02235E-001	3,04739E-005	0,00000E+000	-5,01996E-001	0,00000E+000	8	...........	1407,47
	1901	1902	-4,98237E-001	3,32432E-005	0,00000E+000	-4,97998E-001	0,00000E+000	8	...........	1407,56
	1903	1904	-4,94254E-001	3,56892E-005	0,00000E+000	-4,94001E-001	0,00000E+000	8	...........	1407,56
	1905	1906	-4,90246E-001	3,78870E-005	0,00000E+000	-4,90003E-001	0,00000E+000	8	...........	1407,56
	1907	1908	-4,86236E-001	3,97174E-005	0,00000E+000	-4,86006E-001	0,00000E+000	8	...........	1407,56
	1909	1910	-4,82244E-001	4,13142E-005	0,00000E+000	-4,81996E-001	0,00000E+000	8	...........	1407,56
	1911	1912	-4,78242E-001	4,25160E-005	0,00000E+000	-4,77998E-001	0,00000E+000	8	...........	1407,56
	1913	1914	-4,74259E-001	4,35080E-005	0,00000E+000	-4,74001E-001	0,00000E+000	8	...........	1407,56
	1915	1916	-4,70230E-001	4,42530E-005	0,00000E+000	-4,70003E-001	0,00000E+000	8	...........	1407,56
	1917	1918	-4,66238E-001	4,47601E-005	0,00000E+000	-4,66006E-001	0,00000E+000	8	...........	1407,56
	1919	1920	-4,62237E-001	4,50901E-005	0,00000E+000	-4,61996E-001	0,00000E+000	8	...........	1407,56
	1921	1922	-4,58221E-001	4,52199E-005	0,00000E+000	-4,57998E-001	0,00000E+000	8	...........	1407,56
	1923	1924	-4,54226E-001	4,52085E-005	0,00000E+000	-4,54001E-001	0,00000E+000	8	...........	1407,56
	1925	1926	-4,50234E-001	4,50507E-005	0,00000E+000	-4,50003E-001	0,00000E+000	8	...........	1407,56
	1927	1928	-4,46219E-001	4,47583E-005	0,00000E+000	-4,46006E-001	0,00000E+000	8	...........	1407,56
	1929	1930	-4,42229E-001	4,43806E-005	0,00000E+000	-4,41996E-001	0,00000E+000	8	...........	1407,56
	1931	1932	-4,38223E-001	4,39111E-005	0,00000E+000	-4,37998E-001	0,00000E+000	8	...........	1407,56
	1933	1934	-4,34204E-001	4,33226E-005	0,00000E+000	-4,34001E-001	0,00000E+000	8	...........	1407,56
	1935	1936	-4,30214E-001	4,26904E-005	0,00000E+000	-4,30003E-001	0,00000E+000	8	...........	1407,56
	1937	1938	-4,26209E-001	4,20023E-005	0,00000E+000	-4,26006E-001	0,00000E+000	8	...........	1407,56
	1939	1940	-4,22199E-001	4,12741E-005	0,00000E+000	-4,21996E-001	0,00000E+000	8	...........	1407,56
	1941	1942	-4,18207E-001	4,04937E-005	0,00000E+000	-4,17998E-001	0,00000E+000	8	...........	1407,56
	1943	1944	-4,14204E-001	3,97156E-005	0,00000E+000	-4,14001E-001	0,00000E+000	8	...........	1407,56
	1945	1946	-4,10216E-001	3,88986E-005	0,00000E+000	-4,10003E-001	0,00000E+000	8	...........	1407,56
	1947	1948	-4,06202E-001	3,80988E-005	0,00000E+000	-4,06006E-001	0,00000E+000	8	...........	1407,56
	1949	1950	-4,02202E-001	3,72924E-005	0,00000E+000	-4,01996E-001	0,00000E+000	8	...........	1407,56
	1951	1952	-3,98195E-001	3,64966E-005	0,00000E+000	-3,97998E-001	0,00000E+000	8	...........	1407,56
	1953	1954	-3,94195E-001	3,57012E-005	0,00000E+000	-3,94001E-001	0,00000E+000	8	...........	1407,56
	1955	1956	-3,90208E-001	3,49342E-005	0,00000E+000	-3,90003E-001	0,00000E+000	8	...........	1407,56
	1957	1958	-3,86194E-001	3,41786E-005	0,00000E+000	-3,86006E-001	0,00000E+000	8	...........	1407,56
	1959	1960	-3,82180E-001	3,34484E-005	0,00000E+000	-3,81996E-001	0,00000E+000	8	...........	1407,56
	1961	1962	-3,78177E-001	3,27473E-005	0,00000E+000	-3,77998E-001	0,00000E+000	8	...........	1407,56
	1963	1964	-3,74190E-001	3,20664E-005	0,00000E+000	-3,74001E-001	0,00000E+000	8	...........	1407,56
	1965	1966	-3,70178E-001	3,14153E-005	0,00000E+000	-3,70003E-001	0,00000E+000	8	...........	1407,56
	1967	1968	-3,66193E-001	3,07899E-005	0,00000E+000	-3,66006E-001	0,00000E+000	8	...........	1407,56
	1969	1970	-3,62169E-001	3,01948E-005	0,00000E+000	-3,61996E-001	0,00000E+000	8	...........	1407,56
	1971	1972	-3,58168E-001	2,96342E-005	0,00000E+000	-3,57998E-001	0,00000E+000	8	...........	1407,47
	1973	1974	-3,54172E-001	2,90889E-005	0,00000E+000	-3,54001E-001	0,00000E+000	8	...........	1407,56
	1975	1976	-3,50180E-001	2,85749E-005	0,00000E+000	-3,50003E-001	0,00000E+000	8	...........	1407,56
	1977	1978	-3,46178E-001	2,80854E-005	0,00000E+000	-3,46006E-001	0,00000E+000	8	...........	1407,56
	1979	1980	-3,42157E-001	2,76319E-005	0,00000E+000	-3,41996E-001	0,00000E+000	8	...........	1407,56
	1981	1982	-3,38172E-001	2,71886E-005	0,00000E+000	-3,37998E-001	0,00000E+000	8	...........	1407,56
	1983	1984	-3,34167E-001	2,67833E-005	0,00000E+000	-3,34001E-001	0,00000E+000	8	...........	1407,56
	1985	1986	-3,30156E-001	2,64056E-005	0,00000E+000	-3,30003E-001	0,00000E+000	8	...........	1407,56
	1987	1988	-3,26164E-001	2,60394E-005	0,00000E+000	-3,26006E-001	0,00000E+000	8	...........	1407,56
	1989	1990	-3,22156E-001	2,56800E-005	0,00000E+000	-3,21996E-001	0,00000E+000	8	...........	1407,56
	1991	1992	-3,18149E-001	2,53373E-005	0,00000E+000	-3,17998E-001	0,00000E+000	8	...........	1407,56
	1993	1994	-3,14168E-001	2,50242E-005	0,00000E+000	-3,14001E-001	0,00000E+000	8	...........	1407,56
	1995	1996	-3,10159E-001	2,47369E-005	0,00000E+000	-3,10003E-001	0,00000E+000	8	...........	1407,56
	1997	1998	-3,06154E-001	2,44609E-005	0,00000E+000	-3,06006E-001	0,00000E+000	8	...........	1407,56
	1999	2000	-3,02145E-001	2,41812E-005	0,00000E+000	-3,01996E-001	0,00000E+000	8	...........	1407,56
	2001	2002	-2,98150E-001	2,39210E-005	0,00000E+000	-2,97998E-001	0,00000E+000	8	...........	1407,56
	2003	2004	-2,94143E-001	2,36520E-005	0,00000E+000	-2,94001E-001	0,00000E+000	8	...........	1407,56
	2005	2006	-2,90141E-001	2,34558E-005	0,00000E+000	-2,90003E-001	0,00000E+000	8	...........	1407,56
	2007	2008	-2,86149E-001	2,32164E-005	0,00000E+000	-2,86006E-001	0,00000E+000	8	...........	1407,56
	2009	2010	-2,82133E-001	2,30421E-005	0,00000E+000	-2,81996E-001	0,00000E+000	8	...........	1407,56
	2011	2012	-2,78132E-001	2,28278E-005	0,00000E+000	-2,77998E-001	0,00000E+000	8	...........	1407,56
	2013	2014	-2,74136E-001	2,26188E-005	0,00000E+000	-2,74001E-001	0,00000E+000	8	...........	1407,56
	2015	2016	-2,70133E-001	2,24231E-005	0,00000E+000	-2,70003E-001	0,00000E+000	8	...........	1407,56
	2017	2018	-2,66150E-001	2,22577E-005	0,00000E+000	-2,66006E-001	0,00000E+000	8	...........	1407,56
	2019	2020	-2,62119E-001	2,20934E-005	0,00000E+000	-2,61996E-001	0,00000E+000	8	...........	1407,56
	2021	2022	-2,58140E-001	2,19156E-005	0,00000E+000	-2,57998E-001	0,00000E+000	8	...........	1407,56
	2023	2024	-2,54126E-001	2,17753E-005	0,00000E+000	-2,54001E-001	0,00000E+000	8	...........	1407,56
	2025	2026	-2,50134E-001	2,15739E-005	0,00000E+000	-2,50003E-001	0,00000E+000	8	...........	1407,56
	2027	2028	-2,46126E-001	2,14192E-005	0,00000E+000	-2,46006E-001	0,00000E+000	8	...........	1407,56
	2029	2030	-2,42109E-001	2,13212E-005	0,00000E+000	-2,41996E-001	0,00000E+000	8	...........	1407,56
	2031	2032	-2,38129E-001	2,11394E-005	0,00000E+000	-2,37998E-001	0,00000E+000	8	...........	1407,56
	2033	2034	-2,34121E-001	2,10174E-005	0,00000E+000	-2,34001E-001	0,00000E+000	8	...........	1407,56
	2035	2036	-2,30114E-001	2,08600E-005	0,00000E+000	-2,30003E-001	0,00000E+000	8	...........	1407,56
	2037	2038	-2,26117E-001	2,07311E-005	0,00000E+000	-2,26006E-001	0,00000E+000	8	...........	1407,56
	2039	2040	-2,22099E-001	2,05844E-005	0,00000E+000	-2,21996E-001	0,00000E+000	8	...........	1407,56
	2041	2042	-2,18117E-001	2,04784E-005	0,00000E+000	-2,17998E-001	0,00000E+000	8	...........	1407,56
	2043	2044	-2,14114E-001	2,03886E-005	0,00000E+000	-2,14001E-001	0,00000E+000	8	...........	1407,56
	2045	2046	-2,10106E-001	2,02264E-005	0,00000E+000	-2,10003E-001	0,00000E+000	8	...........	1407,56
	2047	2048	-2,06112E-001	2,01208E-005	0,00000E+000	-2,06006E-001	0,00000E+000	8	...........	1407,56
	2049	2050	-2,02102E-001	1,99611E-005	0,00000E+000	-2,01996E-001	0,00000E+000	8	...........	1407,56
	2051	2052	-1,98100E-001	1,99295E-005	0,00000E+000	-1,97998E-001	0,00000E+000	8	...........	1407,56
	2053	2054	-1,94113E-001	1,97889E-005	0,00000E+000	-1,94001E-001	0,00000E+000	8	...........	1407,56
	2055	2056	-1,90123E-001	1,96657E-005	0,00000E+000	-1,90003E-001	0,00000E+000	8	...........	1407,56
	2057	2058	-1,86112E-001	1,95548E-005	0,00000E+000	-1,86006E-001	0,00000E+000	8	...........	1407,56
	2059	2060	-1,82107E-001	1,94303E-005	0,00000E+000	-1,81996E-001	0,00000E+000	8	...........	1407,56
	2061	2062	-1,78095E-001	1,93158E-005	0,00000E+000	-1,77998E-001	0,00000E+000	8	...........	1407,47
	2063	2064	-1,74093E-001	1,92045E-005	0,00000E+000	-1,74001E-001	0,00000E+000	8	...........	1407,56
	2065	2066	-1,70105E-001	1,90850E-005	0,00000E+000	-1,70003E-001	0,00000E+000	8	...........	1407,56
	2067	2068	-1,66102E-001	1,89514E-005	0,00000E+000	-1,66006E-001	0,00000E+000	8	...........	1407,56
	2069	2070	-1,62106E-001	1,88433E-005	0,00000E+000	-1,61996E-001	0,00000E+000	8	...........	1407,56
	2071	2072	-1,58088E-001	1,87374E-005	0,00000E+000	-1,57998E-001	0,00000E+000	8	...........	1407,56
	2073	2074	-1,54100E-001	1,85797E-005	0,00000E+000	-1,54001E-001	0,00000E+000	8	...........	1407,56
	2075	2076	-1,50085E-001	1,84919E-005	0,00000E+000	-1,50003E-001	0,00000E+000	8	...........	1407,56
	2077	2078	-1,46091E-001	1,83937E-005	0,00000E+000	-1,46006E-001	0,00000E+000	8	...........	1407,56
	2079	2080	-1,42085E-001	1,82831E-005	0,00000E+000	-1,41996E-001	0,00000E+000	8	...........	1407,56
	2081	2082	-1,38081E-001	1,81395E-005	0,00000E+000	-1,37998E-001	0,00000E+000	8	...........	1407,56
	2083	2084	-1,34079E-001	1,80338E-005	0,00000E+000	-1,34001E-001	0,00000E+000	8	...........	1407,56
	2085	2086	-1,30081E-001	1,78596E-005	0,00000E+000	-1,30003E-001	0,00000E+000	8	...........	1407,56
	2087	2088	-1,26076E-001	1,76538E-005	0,00000E+000	-1,26006E-001	0,00000E+000	8	...........	1407,56
	2089	2090	-1,22059E-001	1,75887E-005	0,00000E+000	-1,21996E-001	0,00000E+000	8	...........	1407,56
	2091	2092	-1,18067E-001	1,76135E-005	0,00000E+000	-1,17998E-001	0,00000E+000	8	...........	1407,56
	2093	2094	-1,14056E-001	1,75806E-005	0,00000E+000	-1,14001E-001	0,00000E+000	8	...........	1407,56
	2095	2096	-1,10074E-001	1,74997E-005	0,00000E+000	-1,10003E-001	0,00000E+000	8	...........	1407,56
	2097	2098	-1,06064E-001	1,74200E-005	0,00000E+000	-1,06006E-001	0,00000E+000	8	...........	1407,56
	2099	2100	-1,02049E-001	1,73297E-005	0,00000E+000	-1,01996E-001	0,00000E+000	8	...........	1407,56
	2100	2101	-1,00046E-001	1,72608E-005	0,00000E+000	-9,99971E-002	0,00000E+000	8	...........	1407,56
CURVE4	TABLE
	Pt	T	Vf	Im	Vu	Sig	Ach	IERange	Over	Temp
	#	s	V vs. Ref.	A	V	V	V	#	bits	deg C
	2101	2102	-1,00051E-001	1,71987E-005	0,00000E+000	-9,99971E-002	0,00000E+000	8	...........	1407,56